"rt","key_press","trial_type","trial_index","time_elapsed","internal_node_id","subject","text","block_duration","timing_post_trial","trial_id","view_history","stimulus","possible_responses","stim_duration","addingOnTrial","exp_id"
"238","13","text","0","242","0.0-0.0","b01aad29-53f5-4e98-ab03-56eeb0582a3b","","","","","","","","","",""
"2205","13","poldrack-text","1","3452","0.0-1.0-0.0","b01aad29-53f5-4e98-ab03-56eeb0582a3b","<div class = centerbox><p class = center-block-text>Welcome to the experiment. Press <strong>enter</strong> to begin.</p></div>","2205","0","instruction","","","","","",""
"186194","","poldrack-instructions","2","189647","0.0-1.0-1.0","b01aad29-53f5-4e98-ab03-56eeb0582a3b","","","","instruction","[{""page_index"":0,""viewing_time"":40081},{""page_index"":1,""viewing_time"":9749},{""page_index"":2,""viewing_time"":86610},{""page_index"":3,""viewing_time"":49752}]","","","","",""
"7558","40","poldrack-single-stim","3","197712","0.0-2.0","b01aad29-53f5-4e98-ab03-56eeb0582a3b","","7558","0","breath_counting","","<div class=centerbox><p class = center-block-text>Place your attention on the breath.</p><p class = center-block-text>Press the down arrow after your first exhale as you count ""one"", then close your eyes and continue counting breaths and pressing the correct arrow key.</p></div>","40,39","7558","added!",""
"5439","40","poldrack-single-stim","4","203153","0.0-3.0-0.0","b01aad29-53f5-4e98-ab03-56eeb0582a3b","","5439","0","breath_counting","","","40,39","5439","added!",""
"4936","40","poldrack-single-stim","5","208094","0.0-3.1-0.1","b01aad29-53f5-4e98-ab03-56eeb0582a3b","","4936","0","breath_counting","","","40,39","4936","added!",""
"5407","40","poldrack-single-stim","6","213503","0.0-3.2-0.2","b01aad29-53f5-4e98-ab03-56eeb0582a3b","","5407","0","breath_counting","","","40,39","5407","added!",""
"5190","40","poldrack-single-stim","7","218694","0.0-3.3-0.3","b01aad29-53f5-4e98-ab03-56eeb0582a3b","","5190","0","breath_counting","","","40,39","5190","added!",""
"4318","40","poldrack-single-stim","8","223013","0.0-3.4-0.4","b01aad29-53f5-4e98-ab03-56eeb0582a3b","","4318","0","breath_counting","","","40,39","4318","added!",""
"4905","40","poldrack-single-stim","9","227921","0.0-3.5-0.5","b01aad29-53f5-4e98-ab03-56eeb0582a3b","","4905","0","breath_counting","","","40,39","4905","added!",""
"4868","40","poldrack-single-stim","10","232790","0.0-3.6-0.6","b01aad29-53f5-4e98-ab03-56eeb0582a3b","","4868","0","breath_counting","","","40,39","4868","added!",""
"4790","39","poldrack-single-stim","11","237582","0.0-3.7-0.7","b01aad29-53f5-4e98-ab03-56eeb0582a3b","","4790","0","breath_counting","","","40,39","4790","added!",""
"4487","40","poldrack-single-stim","12","242072","0.0-3.8-0.8","b01aad29-53f5-4e98-ab03-56eeb0582a3b","","4487","0","breath_counting","","","40,39","4487","added!",""
"4484","40","poldrack-single-stim","13","246559","0.0-3.9-0.9","b01aad29-53f5-4e98-ab03-56eeb0582a3b","","4484","0","breath_counting","","","40,39","4484","added!",""
"5084","40","poldrack-single-stim","14","251646","0.0-3.10-0.10","b01aad29-53f5-4e98-ab03-56eeb0582a3b","","5084","0","breath_counting","","","40,39","5084","added!",""
"5007","40","poldrack-single-stim","15","256655","0.0-3.11-0.11","b01aad29-53f5-4e98-ab03-56eeb0582a3b","","5007","0","breath_counting","","","40,39","5007","added!",""
"4654","40","poldrack-single-stim","16","261310","0.0-3.12-0.12","b01aad29-53f5-4e98-ab03-56eeb0582a3b","","4654","0","breath_counting","","","40,39","4654","added!",""
"4910","40","poldrack-single-stim","17","266222","0.0-3.13-0.13","b01aad29-53f5-4e98-ab03-56eeb0582a3b","","4910","0","breath_counting","","","40,39","4910","added!",""
"5023","40","poldrack-single-stim","18","271248","0.0-3.14-0.14","b01aad29-53f5-4e98-ab03-56eeb0582a3b","","5023","0","breath_counting","","","40,39","5023","added!",""
"4845","40","poldrack-single-stim","19","276095","0.0-3.15-0.15","b01aad29-53f5-4e98-ab03-56eeb0582a3b","","4845","0","breath_counting","","","40,39","4845","added!",""
"4480","39","poldrack-single-stim","20","280582","0.0-3.16-0.16","b01aad29-53f5-4e98-ab03-56eeb0582a3b","","4480","0","breath_counting","","","40,39","4480","added!",""
"4945","40","poldrack-single-stim","21","285529","0.0-3.17-0.17","b01aad29-53f5-4e98-ab03-56eeb0582a3b","","4945","0","breath_counting","","","40,39","4945","added!",""
"4539","40","poldrack-single-stim","22","290070","0.0-3.18-0.18","b01aad29-53f5-4e98-ab03-56eeb0582a3b","","4539","0","breath_counting","","","40,39","4539","added!",""
"5414","40","poldrack-single-stim","23","295487","0.0-3.19-0.19","b01aad29-53f5-4e98-ab03-56eeb0582a3b","","5414","0","breath_counting","","","40,39","5414","added!",""
"5616","40","poldrack-single-stim","24","301105","0.0-3.20-0.20","b01aad29-53f5-4e98-ab03-56eeb0582a3b","","5616","0","breath_counting","","","40,39","5616","added!",""
"4649","40","poldrack-single-stim","25","305758","0.0-3.21-0.21","b01aad29-53f5-4e98-ab03-56eeb0582a3b","","4649","0","breath_counting","","","40,39","4649","added!",""
"4566","40","poldrack-single-stim","26","310327","0.0-3.22-0.22","b01aad29-53f5-4e98-ab03-56eeb0582a3b","","4566","0","breath_counting","","","40,39","4566","added!",""
"5152","40","poldrack-single-stim","27","315481","0.0-3.23-0.23","b01aad29-53f5-4e98-ab03-56eeb0582a3b","","5152","0","breath_counting","","","40,39","5152","added!",""
"4876","40","poldrack-single-stim","28","320359","0.0-3.24-0.24","b01aad29-53f5-4e98-ab03-56eeb0582a3b","","4876","0","breath_counting","","","40,39","4876","added!",""
"5479","39","poldrack-single-stim","29","325841","0.0-3.25-0.25","b01aad29-53f5-4e98-ab03-56eeb0582a3b","","5479","0","breath_counting","","","40,39","5479","added!",""
"5841","40","poldrack-single-stim","30","331684","0.0-3.26-0.26","b01aad29-53f5-4e98-ab03-56eeb0582a3b","","5841","0","breath_counting","","","40,39","5841","added!",""
"5180","40","poldrack-single-stim","31","336865","0.0-3.27-0.27","b01aad29-53f5-4e98-ab03-56eeb0582a3b","","5180","0","breath_counting","","","40,39","5180","added!",""
"5724","40","poldrack-single-stim","32","342592","0.0-3.28-0.28","b01aad29-53f5-4e98-ab03-56eeb0582a3b","","5724","0","breath_counting","","","40,39","5724","added!",""
"5871","40","poldrack-single-stim","33","348466","0.0-3.29-0.29","b01aad29-53f5-4e98-ab03-56eeb0582a3b","","5871","0","breath_counting","","","40,39","5871","added!",""
"5162","40","poldrack-single-stim","34","353630","0.0-3.30-0.30","b01aad29-53f5-4e98-ab03-56eeb0582a3b","","5162","0","breath_counting","","","40,39","5162","added!",""
"5682","40","poldrack-single-stim","35","359314","0.0-3.31-0.31","b01aad29-53f5-4e98-ab03-56eeb0582a3b","","5682","0","breath_counting","","","40,39","5682","added!",""
"5203","40","poldrack-single-stim","36","364520","0.0-3.32-0.32","b01aad29-53f5-4e98-ab03-56eeb0582a3b","","5203","0","breath_counting","","","40,39","5203","added!",""
"4373","39","poldrack-single-stim","37","368896","0.0-3.33-0.33","b01aad29-53f5-4e98-ab03-56eeb0582a3b","","4373","0","breath_counting","","","40,39","4373","added!",""
"5047","40","poldrack-single-stim","38","373946","0.0-3.34-0.34","b01aad29-53f5-4e98-ab03-56eeb0582a3b","","5047","0","breath_counting","","","40,39","5047","added!",""
"5188","40","poldrack-single-stim","39","379136","0.0-3.35-0.35","b01aad29-53f5-4e98-ab03-56eeb0582a3b","","5188","0","breath_counting","","","40,39","5188","added!",""
"5375","40","poldrack-single-stim","40","384514","0.0-3.36-0.36","b01aad29-53f5-4e98-ab03-56eeb0582a3b","","5375","0","breath_counting","","","40,39","5375","added!",""
"6139","40","poldrack-single-stim","41","390656","0.0-3.37-0.37","b01aad29-53f5-4e98-ab03-56eeb0582a3b","","6139","0","breath_counting","","","40,39","6139","added!",""
"5389","40","poldrack-single-stim","42","396050","0.0-3.38-0.38","b01aad29-53f5-4e98-ab03-56eeb0582a3b","","5389","0","breath_counting","","","40,39","5389","added!",""
"5019","40","poldrack-single-stim","43","401072","0.0-3.39-0.39","b01aad29-53f5-4e98-ab03-56eeb0582a3b","","5019","0","breath_counting","","","40,39","5019","added!",""
"5487","40","poldrack-single-stim","44","406562","0.0-3.40-0.40","b01aad29-53f5-4e98-ab03-56eeb0582a3b","","5487","0","breath_counting","","","40,39","5487","added!",""
"5348","40","poldrack-single-stim","45","411912","0.0-3.41-0.41","b01aad29-53f5-4e98-ab03-56eeb0582a3b","","5348","0","breath_counting","","","40,39","5348","added!",""
"4285","39","poldrack-single-stim","46","416201","0.0-3.42-0.42","b01aad29-53f5-4e98-ab03-56eeb0582a3b","","4285","0","breath_counting","","","40,39","4285","added!",""
"5504","40","poldrack-single-stim","47","421706","0.0-3.43-0.43","b01aad29-53f5-4e98-ab03-56eeb0582a3b","","5504","0","breath_counting","","","40,39","5504","added!",""
"5691","40","poldrack-single-stim","48","427401","0.0-3.44-0.44","b01aad29-53f5-4e98-ab03-56eeb0582a3b","","5691","0","breath_counting","","","40,39","5691","added!",""
"5495","40","poldrack-single-stim","49","432899","0.0-3.45-0.45","b01aad29-53f5-4e98-ab03-56eeb0582a3b","","5495","0","breath_counting","","","40,39","5495","added!",""
"5603","40","poldrack-single-stim","50","438505","0.0-3.46-0.46","b01aad29-53f5-4e98-ab03-56eeb0582a3b","","5603","0","breath_counting","","","40,39","5603","added!",""
"5855","40","poldrack-single-stim","51","444362","0.0-3.47-0.47","b01aad29-53f5-4e98-ab03-56eeb0582a3b","","5855","0","breath_counting","","","40,39","5855","added!",""
"5068","40","poldrack-single-stim","52","449433","0.0-3.48-0.48","b01aad29-53f5-4e98-ab03-56eeb0582a3b","","5068","0","breath_counting","","","40,39","5068","added!",""
"5214","40","poldrack-single-stim","53","454649","0.0-3.49-0.49","b01aad29-53f5-4e98-ab03-56eeb0582a3b","","5214","0","breath_counting","","","40,39","5214","added!",""
"5526","40","poldrack-single-stim","54","460177","0.0-3.50-0.50","b01aad29-53f5-4e98-ab03-56eeb0582a3b","","5526","0","breath_counting","","","40,39","5526","added!",""
"5750","39","poldrack-single-stim","55","465930","0.0-3.51-0.51","b01aad29-53f5-4e98-ab03-56eeb0582a3b","","5750","0","breath_counting","","","40,39","5750","added!",""
"5603","40","poldrack-single-stim","56","471537","0.0-3.52-0.52","b01aad29-53f5-4e98-ab03-56eeb0582a3b","","5603","0","breath_counting","","","40,39","5603","added!",""
"5495","40","poldrack-single-stim","57","477035","0.0-3.53-0.53","b01aad29-53f5-4e98-ab03-56eeb0582a3b","","5495","0","breath_counting","","","40,39","5495","added!",""
"7443","40","poldrack-single-stim","58","484481","0.0-3.54-0.54","b01aad29-53f5-4e98-ab03-56eeb0582a3b","","7443","0","breath_counting","","","40,39","7443","added!",""
"5397","40","poldrack-single-stim","59","489882","0.0-3.55-0.55","b01aad29-53f5-4e98-ab03-56eeb0582a3b","","5397","0","breath_counting","","","40,39","5397","added!",""
"6325","40","poldrack-single-stim","60","496209","0.0-3.56-0.56","b01aad29-53f5-4e98-ab03-56eeb0582a3b","","6325","0","breath_counting","","","40,39","6325","added!",""
"5894","40","poldrack-single-stim","61","502107","0.0-3.57-0.57","b01aad29-53f5-4e98-ab03-56eeb0582a3b","","5894","0","breath_counting","","","40,39","5894","added!",""
"5812","40","poldrack-single-stim","62","507921","0.0-3.58-0.58","b01aad29-53f5-4e98-ab03-56eeb0582a3b","","5812","0","breath_counting","","","40,39","5812","added!",""
"5759","39","poldrack-single-stim","63","513684","0.0-3.59-0.59","b01aad29-53f5-4e98-ab03-56eeb0582a3b","","5759","0","breath_counting","","","40,39","5759","added!",""
"6419","40","poldrack-single-stim","64","520105","0.0-3.60-0.60","b01aad29-53f5-4e98-ab03-56eeb0582a3b","","6419","0","breath_counting","","","40,39","6419","added!",""
"6198","40","poldrack-single-stim","65","526306","0.0-3.61-0.61","b01aad29-53f5-4e98-ab03-56eeb0582a3b","","6198","0","breath_counting","","","40,39","6198","added!",""
"6021","40","poldrack-single-stim","66","532329","0.0-3.62-0.62","b01aad29-53f5-4e98-ab03-56eeb0582a3b","","6021","0","breath_counting","","","40,39","6021","added!",""
"5525","40","poldrack-single-stim","67","537857","0.0-3.63-0.63","b01aad29-53f5-4e98-ab03-56eeb0582a3b","","5525","0","breath_counting","","","40,39","5525","added!",""
"6829","40","poldrack-single-stim","68","544690","0.0-3.64-0.64","b01aad29-53f5-4e98-ab03-56eeb0582a3b","","6829","0","breath_counting","","","40,39","6829","added!",""
"6367","40","poldrack-single-stim","69","551060","0.0-3.65-0.65","b01aad29-53f5-4e98-ab03-56eeb0582a3b","","6367","0","breath_counting","","","40,39","6367","added!",""
"6971","40","poldrack-single-stim","70","558034","0.0-3.66-0.66","b01aad29-53f5-4e98-ab03-56eeb0582a3b","","6971","0","breath_counting","","","40,39","6971","added!",""
"6631","39","poldrack-single-stim","71","564668","0.0-3.67-0.67","b01aad29-53f5-4e98-ab03-56eeb0582a3b","","6631","0","breath_counting","","","40,39","6631","added!",""
"6443","40","poldrack-single-stim","72","571114","0.0-3.68-0.68","b01aad29-53f5-4e98-ab03-56eeb0582a3b","","6443","0","breath_counting","","","40,39","6443","added!",""
"6181","40","poldrack-single-stim","73","577299","0.0-3.69-0.69","b01aad29-53f5-4e98-ab03-56eeb0582a3b","","6181","0","breath_counting","","","40,39","6181","added!",""
"6372","40","poldrack-single-stim","74","583674","0.0-3.70-0.70","b01aad29-53f5-4e98-ab03-56eeb0582a3b","","6372","0","breath_counting","","","40,39","6372","added!",""
"7583","40","poldrack-single-stim","75","591260","0.0-3.71-0.71","b01aad29-53f5-4e98-ab03-56eeb0582a3b","","7583","0","breath_counting","","","40,39","7583","added!",""
"6924","40","poldrack-single-stim","76","598186","0.0-3.72-0.72","b01aad29-53f5-4e98-ab03-56eeb0582a3b","","6924","0","breath_counting","","","40,39","6924","added!",""
"7430","40","poldrack-single-stim","77","605621","0.0-3.73-0.73","b01aad29-53f5-4e98-ab03-56eeb0582a3b","","7430","0","breath_counting","","","40,39","7430","added!",""
"5850","40","poldrack-single-stim","78","611474","0.0-3.74-0.74","b01aad29-53f5-4e98-ab03-56eeb0582a3b","","5850","0","breath_counting","","","40,39","5850","added!",""
"5460","40","poldrack-single-stim","79","616939","0.0-3.75-0.75","b01aad29-53f5-4e98-ab03-56eeb0582a3b","","5460","0","breath_counting","","","40,39","5460","added!",""
"7996","39","poldrack-single-stim","80","624938","0.0-3.76-0.76","b01aad29-53f5-4e98-ab03-56eeb0582a3b","","7996","0","breath_counting","","","40,39","7996","added!",""
"5303","40","poldrack-single-stim","81","630243","0.0-3.77-0.77","b01aad29-53f5-4e98-ab03-56eeb0582a3b","","5303","0","breath_counting","","","40,39","5303","added!",""
"5116","40","poldrack-single-stim","82","635362","0.0-3.78-0.78","b01aad29-53f5-4e98-ab03-56eeb0582a3b","","5116","0","breath_counting","","","40,39","5116","added!",""
"6168","40","poldrack-single-stim","83","641533","0.0-3.79-0.79","b01aad29-53f5-4e98-ab03-56eeb0582a3b","","6168","0","breath_counting","","","40,39","6168","added!",""
"6394","40","poldrack-single-stim","84","647929","0.0-3.80-0.80","b01aad29-53f5-4e98-ab03-56eeb0582a3b","","6394","0","breath_counting","","","40,39","6394","added!",""
"6761","40","poldrack-single-stim","85","654693","0.0-3.81-0.81","b01aad29-53f5-4e98-ab03-56eeb0582a3b","","6761","0","breath_counting","","","40,39","6761","added!",""
"6227","40","poldrack-single-stim","86","660923","0.0-3.82-0.82","b01aad29-53f5-4e98-ab03-56eeb0582a3b","","6227","0","breath_counting","","","40,39","6227","added!",""
"5751","40","poldrack-single-stim","87","666677","0.0-3.83-0.83","b01aad29-53f5-4e98-ab03-56eeb0582a3b","","5751","0","breath_counting","","","40,39","5751","added!",""
"5714","40","poldrack-single-stim","88","672395","0.0-3.84-0.84","b01aad29-53f5-4e98-ab03-56eeb0582a3b","","5714","0","breath_counting","","","40,39","5714","added!",""
"6215","39","poldrack-single-stim","89","678614","0.0-3.85-0.85","b01aad29-53f5-4e98-ab03-56eeb0582a3b","","6215","0","breath_counting","","","40,39","6215","added!",""
"5962","40","poldrack-single-stim","90","684580","0.0-3.86-0.86","b01aad29-53f5-4e98-ab03-56eeb0582a3b","","5962","0","breath_counting","","","40,39","5962","added!",""
"5038","40","poldrack-single-stim","91","689622","0.0-3.87-0.87","b01aad29-53f5-4e98-ab03-56eeb0582a3b","","5038","0","breath_counting","","","40,39","5038","added!",""
"5491","40","poldrack-single-stim","92","695116","0.0-3.88-0.88","b01aad29-53f5-4e98-ab03-56eeb0582a3b","","5491","0","breath_counting","","","40,39","5491","added!",""
"5510","40","poldrack-single-stim","93","700630","0.0-3.89-0.89","b01aad29-53f5-4e98-ab03-56eeb0582a3b","","5510","0","breath_counting","","","40,39","5510","added!",""
"5554","40","poldrack-single-stim","94","706187","0.0-3.90-0.90","b01aad29-53f5-4e98-ab03-56eeb0582a3b","","5554","0","breath_counting","","","40,39","5554","added!",""
"6582","40","poldrack-single-stim","95","712773","0.0-3.91-0.91","b01aad29-53f5-4e98-ab03-56eeb0582a3b","","6582","0","breath_counting","","","40,39","6582","added!",""
"6484","40","poldrack-single-stim","96","719259","0.0-3.92-0.92","b01aad29-53f5-4e98-ab03-56eeb0582a3b","","6484","0","breath_counting","","","40,39","6484","added!",""
"5367","40","poldrack-single-stim","97","724630","0.0-3.93-0.93","b01aad29-53f5-4e98-ab03-56eeb0582a3b","","5367","0","breath_counting","","","40,39","5367","added!",""
"5003","39","poldrack-single-stim","98","729635","0.0-3.94-0.94","b01aad29-53f5-4e98-ab03-56eeb0582a3b","","5003","0","breath_counting","","","40,39","5003","added!",""
"5999","40","poldrack-single-stim","99","735638","0.0-3.95-0.95","b01aad29-53f5-4e98-ab03-56eeb0582a3b","","5999","0","breath_counting","","","40,39","5999","added!",""
"5619","40","poldrack-single-stim","100","741259","0.0-3.96-0.96","b01aad29-53f5-4e98-ab03-56eeb0582a3b","","5619","0","breath_counting","","","40,39","5619","added!",""
"5685","40","poldrack-single-stim","101","746949","0.0-3.97-0.97","b01aad29-53f5-4e98-ab03-56eeb0582a3b","","5685","0","breath_counting","","","40,39","5685","added!",""
"5723","40","poldrack-single-stim","102","752676","0.0-3.98-0.98","b01aad29-53f5-4e98-ab03-56eeb0582a3b","","5723","0","breath_counting","","","40,39","5723","added!",""
"5542","40","poldrack-single-stim","103","758222","0.0-3.99-0.99","b01aad29-53f5-4e98-ab03-56eeb0582a3b","","5542","0","breath_counting","","","40,39","5542","added!",""
"6202","40","poldrack-single-stim","104","764428","0.0-3.100-0.100","b01aad29-53f5-4e98-ab03-56eeb0582a3b","","6202","0","breath_counting","","","40,39","6202","added!",""
"6270","40","poldrack-single-stim","105","770702","0.0-3.101-0.101","b01aad29-53f5-4e98-ab03-56eeb0582a3b","","6270","0","breath_counting","","","40,39","6270","added!",""
"6809","40","poldrack-single-stim","106","777516","0.0-3.102-0.102","b01aad29-53f5-4e98-ab03-56eeb0582a3b","","6809","0","breath_counting","","","40,39","6809","added!",""
"6111","39","poldrack-single-stim","107","783630","0.0-3.103-0.103","b01aad29-53f5-4e98-ab03-56eeb0582a3b","","6111","0","breath_counting","","","40,39","6111","added!",""
"6114","40","poldrack-single-stim","108","789748","0.0-3.104-0.104","b01aad29-53f5-4e98-ab03-56eeb0582a3b","","6114","0","breath_counting","","","40,39","6114","added!",""
"6318","40","poldrack-single-stim","109","796069","0.0-3.105-0.105","b01aad29-53f5-4e98-ab03-56eeb0582a3b","","6318","0","breath_counting","","","40,39","6318","added!",""
"4883","40","poldrack-single-stim","110","800956","0.0-3.106-0.106","b01aad29-53f5-4e98-ab03-56eeb0582a3b","","4883","0","breath_counting","","","40,39","4883","added!",""
"5423","40","poldrack-single-stim","111","806383","0.0-3.107-0.107","b01aad29-53f5-4e98-ab03-56eeb0582a3b","","5423","0","breath_counting","","","40,39","5423","added!",""
"5537","40","poldrack-single-stim","112","811924","0.0-3.108-0.108","b01aad29-53f5-4e98-ab03-56eeb0582a3b","","5537","0","breath_counting","","","40,39","5537","added!",""
"5694","40","poldrack-single-stim","113","817623","0.0-3.109-0.109","b01aad29-53f5-4e98-ab03-56eeb0582a3b","","5694","0","breath_counting","","","40,39","5694","added!",""
"7528","39","poldrack-single-stim","114","825157","0.0-3.110-0.110","b01aad29-53f5-4e98-ab03-56eeb0582a3b","","7528","0","breath_counting","","","40,39","7528","added!",""
"6022","40","poldrack-single-stim","115","831182","0.0-3.111-0.111","b01aad29-53f5-4e98-ab03-56eeb0582a3b","","6022","0","breath_counting","","","40,39","6022","added!",""
"5868","40","poldrack-single-stim","116","837055","0.0-3.112-0.112","b01aad29-53f5-4e98-ab03-56eeb0582a3b","","5868","0","breath_counting","","","40,39","5868","added!",""
"6195","40","poldrack-single-stim","117","843254","0.0-3.113-0.113","b01aad29-53f5-4e98-ab03-56eeb0582a3b","","6195","0","breath_counting","","","40,39","6195","added!",""
"5033","40","poldrack-single-stim","118","848292","0.0-3.114-0.114","b01aad29-53f5-4e98-ab03-56eeb0582a3b","","5033","0","breath_counting","","","40,39","5033","added!",""
"6539","40","poldrack-single-stim","119","854839","0.0-3.115-0.115","b01aad29-53f5-4e98-ab03-56eeb0582a3b","","6539","0","breath_counting","","","40,39","6539","added!",""
"6370","40","poldrack-single-stim","120","861213","0.0-3.116-0.116","b01aad29-53f5-4e98-ab03-56eeb0582a3b","","6370","0","breath_counting","","","40,39","6370","added!",""
"5987","40","poldrack-single-stim","121","867205","0.0-3.117-0.117","b01aad29-53f5-4e98-ab03-56eeb0582a3b","","5987","0","breath_counting","","","40,39","5987","added!",""
"5755","40","poldrack-single-stim","122","872965","0.0-3.118-0.118","b01aad29-53f5-4e98-ab03-56eeb0582a3b","","5755","0","breath_counting","","","40,39","5755","added!",""
"6141","40","poldrack-single-stim","123","879109","0.0-3.119-0.119","b01aad29-53f5-4e98-ab03-56eeb0582a3b","","6141","0","breath_counting","","","40,39","6141","added!",""
"5301","39","poldrack-single-stim","124","884413","0.0-3.120-0.120","b01aad29-53f5-4e98-ab03-56eeb0582a3b","","5301","0","breath_counting","","","40,39","5301","added!",""
"4741","40","poldrack-single-stim","125","889157","0.0-3.121-0.121","b01aad29-53f5-4e98-ab03-56eeb0582a3b","","4741","0","breath_counting","","","40,39","4741","added!",""
"4653","40","poldrack-single-stim","126","893813","0.0-3.122-0.122","b01aad29-53f5-4e98-ab03-56eeb0582a3b","","4653","0","breath_counting","","","40,39","4653","added!",""
"5260","40","poldrack-single-stim","127","899077","0.0-3.123-0.123","b01aad29-53f5-4e98-ab03-56eeb0582a3b","","5260","0","breath_counting","","","40,39","5260","added!",""
"5620","40","poldrack-single-stim","128","904704","0.0-3.124-0.124","b01aad29-53f5-4e98-ab03-56eeb0582a3b","","5620","0","breath_counting","","","40,39","5620","added!",""
"5041","40","poldrack-single-stim","129","909748","0.0-3.125-0.125","b01aad29-53f5-4e98-ab03-56eeb0582a3b","","5041","0","breath_counting","","","40,39","5041","added!",""
"5159","40","poldrack-single-stim","130","914912","0.0-3.126-0.126","b01aad29-53f5-4e98-ab03-56eeb0582a3b","","5159","0","breath_counting","","","40,39","5159","added!",""
"5402","40","poldrack-single-stim","131","920318","0.0-3.127-0.127","b01aad29-53f5-4e98-ab03-56eeb0582a3b","","5402","0","breath_counting","","","40,39","5402","added!",""
"5493","40","poldrack-single-stim","132","925815","0.0-3.128-0.128","b01aad29-53f5-4e98-ab03-56eeb0582a3b","","5493","0","breath_counting","","","40,39","5493","added!",""
"5386","39","poldrack-single-stim","133","931205","0.0-3.129-0.129","b01aad29-53f5-4e98-ab03-56eeb0582a3b","","5386","0","breath_counting","","","40,39","5386","added!",""
"5222","40","poldrack-single-stim","134","936430","0.0-3.130-0.130","b01aad29-53f5-4e98-ab03-56eeb0582a3b","","5222","0","breath_counting","","","40,39","5222","added!",""
"5338","40","poldrack-single-stim","135","941773","0.0-3.131-0.131","b01aad29-53f5-4e98-ab03-56eeb0582a3b","","5338","0","breath_counting","","","40,39","5338","added!",""
"4896","40","poldrack-single-stim","136","946671","0.0-3.132-0.132","b01aad29-53f5-4e98-ab03-56eeb0582a3b","","4896","0","breath_counting","","","40,39","4896","added!",""
"6442","40","poldrack-single-stim","137","953118","0.0-3.133-0.133","b01aad29-53f5-4e98-ab03-56eeb0582a3b","","6442","0","breath_counting","","","40,39","6442","added!",""
"6340","40","poldrack-single-stim","138","959464","0.0-3.134-0.134","b01aad29-53f5-4e98-ab03-56eeb0582a3b","","6340","0","breath_counting","","","40,39","6340","added!",""
"6273","40","poldrack-single-stim","139","965742","0.0-3.135-0.135","b01aad29-53f5-4e98-ab03-56eeb0582a3b","","6273","0","breath_counting","","","40,39","6273","added!",""
"6245","40","poldrack-single-stim","140","971990","0.0-3.136-0.136","b01aad29-53f5-4e98-ab03-56eeb0582a3b","","6245","0","breath_counting","","","40,39","6245","added!",""
"4554","39","poldrack-single-stim","141","976550","0.0-3.137-0.137","b01aad29-53f5-4e98-ab03-56eeb0582a3b","","4554","0","breath_counting","","","40,39","4554","added!",""
"5478","40","poldrack-single-stim","142","982032","0.0-3.138-0.138","b01aad29-53f5-4e98-ab03-56eeb0582a3b","","5478","0","breath_counting","","","40,39","5478","added!",""
"4626","40","poldrack-single-stim","143","986662","0.0-3.139-0.139","b01aad29-53f5-4e98-ab03-56eeb0582a3b","","4626","0","breath_counting","","","40,39","4626","added!",""
"3900","40","poldrack-single-stim","144","990566","0.0-3.140-0.140","b01aad29-53f5-4e98-ab03-56eeb0582a3b","","3900","0","breath_counting","","","40,39","3900","added!",""
"5086","40","poldrack-single-stim","145","995656","0.0-3.141-0.141","b01aad29-53f5-4e98-ab03-56eeb0582a3b","","5086","0","breath_counting","","","40,39","5086","added!",""
"4481","40","poldrack-single-stim","146","1000142","0.0-3.142-0.142","b01aad29-53f5-4e98-ab03-56eeb0582a3b","","4481","0","breath_counting","","","40,39","4481","added!",""
"4994","40","poldrack-single-stim","147","1005142","0.0-3.143-0.143","b01aad29-53f5-4e98-ab03-56eeb0582a3b","","4994","0","breath_counting","","","40,39","4994","added!",""
"5101","40","poldrack-single-stim","148","1010246","0.0-3.144-0.144","b01aad29-53f5-4e98-ab03-56eeb0582a3b","","5101","0","breath_counting","","","40,39","5101","added!",""
"5796","40","poldrack-single-stim","149","1016046","0.0-3.145-0.145","b01aad29-53f5-4e98-ab03-56eeb0582a3b","","5796","0","breath_counting","","","40,39","5796","added!",""
"5798","39","poldrack-single-stim","150","1021848","0.0-3.146-0.146","b01aad29-53f5-4e98-ab03-56eeb0582a3b","","5798","0","breath_counting","","","40,39","5798","added!",""
"5025","40","poldrack-single-stim","151","1026878","0.0-3.147-0.147","b01aad29-53f5-4e98-ab03-56eeb0582a3b","","5025","0","breath_counting","","","40,39","5025","added!",""
"5742","40","poldrack-single-stim","152","1032625","0.0-3.148-0.148","b01aad29-53f5-4e98-ab03-56eeb0582a3b","","5742","0","breath_counting","","","40,39","5742","added!",""
"4343","40","poldrack-single-stim","153","1036974","0.0-3.149-0.149","b01aad29-53f5-4e98-ab03-56eeb0582a3b","","4343","0","breath_counting","","","40,39","4343","added!",""
"4700","40","poldrack-single-stim","154","1041678","0.0-3.150-0.150","b01aad29-53f5-4e98-ab03-56eeb0582a3b","","4700","0","breath_counting","","","40,39","4700","added!",""
"5973","40","poldrack-single-stim","155","1047656","0.0-3.151-0.151","b01aad29-53f5-4e98-ab03-56eeb0582a3b","","5973","0","breath_counting","","","40,39","5973","added!",""
"4649","40","poldrack-single-stim","156","1052309","0.0-3.152-0.152","b01aad29-53f5-4e98-ab03-56eeb0582a3b","","4649","0","breath_counting","","","40,39","4649","added!",""
"4885","40","poldrack-single-stim","157","1057198","0.0-3.153-0.153","b01aad29-53f5-4e98-ab03-56eeb0582a3b","","4885","0","breath_counting","","","40,39","4885","added!",""
"4894","40","poldrack-single-stim","158","1062097","0.0-3.154-0.154","b01aad29-53f5-4e98-ab03-56eeb0582a3b","","4894","0","breath_counting","","","40,39","4894","added!",""
"4616","39","poldrack-single-stim","159","1066719","0.0-3.155-0.155","b01aad29-53f5-4e98-ab03-56eeb0582a3b","","4616","0","breath_counting","","","40,39","4616","added!",""
"6037","40","poldrack-single-stim","160","1072759","0.0-3.156-0.156","b01aad29-53f5-4e98-ab03-56eeb0582a3b","","6037","0","breath_counting","","","40,39","6037","added!",""
"4811","40","poldrack-single-stim","161","1077575","0.0-3.157-0.157","b01aad29-53f5-4e98-ab03-56eeb0582a3b","","4811","0","breath_counting","","","40,39","4811","added!",""
"4907","40","poldrack-single-stim","162","1082487","0.0-3.158-0.158","b01aad29-53f5-4e98-ab03-56eeb0582a3b","","4907","0","breath_counting","","","40,39","4907","added!",""
"5104","40","poldrack-single-stim","163","1087593","0.0-3.159-0.159","b01aad29-53f5-4e98-ab03-56eeb0582a3b","","5104","0","breath_counting","","","40,39","5104","added!",""
"5440","40","poldrack-single-stim","164","1093039","0.0-3.160-0.160","b01aad29-53f5-4e98-ab03-56eeb0582a3b","","5440","0","breath_counting","","","40,39","5440","added!",""
"5550","40","poldrack-single-stim","165","1098593","0.0-3.161-0.161","b01aad29-53f5-4e98-ab03-56eeb0582a3b","","5550","0","breath_counting","","","40,39","5550","added!",""
"","","call-function","166","1098610","0.0-4.0","b01aad29-53f5-4e98-ab03-56eeb0582a3b","","","","","","","","","",""
"7252","13","poldrack-text","167","1105863","0.0-5.0","b01aad29-53f5-4e98-ab03-56eeb0582a3b","<div class = centerbox><p class = center-block-text>Great job and thank you! You are now finished with this part of the study.</p><p class = center-block-text>Press <strong>enter</strong> to continue.</p></div>","7252","0","end","","","","","","breath_counting_task"
"958","13","text","168","1106823","0.0-6.0","b01aad29-53f5-4e98-ab03-56eeb0582a3b","","","","","","","","","",""
