"rt","key_press","trial_type","trial_index","time_elapsed","internal_node_id","subject","text","block_duration","timing_post_trial","trial_id","view_history","stimulus","possible_responses","stim_duration","addingOnTrial","exp_id"
"500","13","text","0","505","0.0-0.0","b5a8c975-6c24-4b71-91ed-d5de37562b2f","","","","","","","","","",""
"537","13","poldrack-text","1","2047","0.0-1.0-0.0","b5a8c975-6c24-4b71-91ed-d5de37562b2f","<div class = centerbox><p class = center-block-text>Welcome to the experiment. Press <strong>enter</strong> to begin.</p></div>","537","0","instruction","","","","","",""
"223192","","poldrack-instructions","2","225240","0.0-1.0-1.0","b5a8c975-6c24-4b71-91ed-d5de37562b2f","","","","instruction","[{""page_index"":0,""viewing_time"":59151},{""page_index"":1,""viewing_time"":20470},{""page_index"":2,""viewing_time"":85456},{""page_index"":3,""viewing_time"":58113}]","","","","",""
"13814","40","poldrack-single-stim","3","239561","0.0-2.0","b5a8c975-6c24-4b71-91ed-d5de37562b2f","","13814","0","breath_counting","","<div class=centerbox><p class = center-block-text>Place your attention on the breath.</p><p class = center-block-text>Press the down arrow after your first exhale as you count ""one"", then close your eyes and continue counting breaths and pressing the correct arrow key.</p></div>","40,39","13814","added!",""
"5211","40","poldrack-single-stim","4","244775","0.0-3.0-0.0","b5a8c975-6c24-4b71-91ed-d5de37562b2f","","5211","0","breath_counting","","","40,39","5211","added!",""
"4042","40","poldrack-single-stim","5","248823","0.0-3.1-0.1","b5a8c975-6c24-4b71-91ed-d5de37562b2f","","4042","0","breath_counting","","","40,39","4042","added!",""
"3551","40","poldrack-single-stim","6","252376","0.0-3.2-0.2","b5a8c975-6c24-4b71-91ed-d5de37562b2f","","3551","0","breath_counting","","","40,39","3551","added!",""
"2997","40","poldrack-single-stim","7","255375","0.0-3.3-0.3","b5a8c975-6c24-4b71-91ed-d5de37562b2f","","2997","0","breath_counting","","","40,39","2997","added!",""
"3366","40","poldrack-single-stim","8","258743","0.0-3.4-0.4","b5a8c975-6c24-4b71-91ed-d5de37562b2f","","3366","0","breath_counting","","","40,39","3366","added!",""
"3342","40","poldrack-single-stim","9","262087","0.0-3.5-0.5","b5a8c975-6c24-4b71-91ed-d5de37562b2f","","3342","0","breath_counting","","","40,39","3342","added!",""
"3791","40","poldrack-single-stim","10","265880","0.0-3.6-0.6","b5a8c975-6c24-4b71-91ed-d5de37562b2f","","3791","0","breath_counting","","","40,39","3791","added!",""
"3219","40","poldrack-single-stim","11","269101","0.0-3.7-0.7","b5a8c975-6c24-4b71-91ed-d5de37562b2f","","3219","0","breath_counting","","","40,39","3219","added!",""
"4303","39","poldrack-single-stim","12","273407","0.0-3.8-0.8","b5a8c975-6c24-4b71-91ed-d5de37562b2f","","4303","0","breath_counting","","","40,39","4303","added!",""
"3527","40","poldrack-single-stim","13","276936","0.0-3.9-0.9","b5a8c975-6c24-4b71-91ed-d5de37562b2f","","3527","0","breath_counting","","","40,39","3527","added!",""
"3292","40","poldrack-single-stim","14","280231","0.0-3.10-0.10","b5a8c975-6c24-4b71-91ed-d5de37562b2f","","3292","0","breath_counting","","","40,39","3292","added!",""
"3621","40","poldrack-single-stim","15","283855","0.0-3.11-0.11","b5a8c975-6c24-4b71-91ed-d5de37562b2f","","3621","0","breath_counting","","","40,39","3621","added!",""
"2677","40","poldrack-single-stim","16","286535","0.0-3.12-0.12","b5a8c975-6c24-4b71-91ed-d5de37562b2f","","2677","0","breath_counting","","","40,39","2677","added!",""
"3248","40","poldrack-single-stim","17","289784","0.0-3.13-0.13","b5a8c975-6c24-4b71-91ed-d5de37562b2f","","3248","0","breath_counting","","","40,39","3248","added!",""
"3260","40","poldrack-single-stim","18","293047","0.0-3.14-0.14","b5a8c975-6c24-4b71-91ed-d5de37562b2f","","3260","0","breath_counting","","","40,39","3260","added!",""
"3165","40","poldrack-single-stim","19","296215","0.0-3.15-0.15","b5a8c975-6c24-4b71-91ed-d5de37562b2f","","3165","0","breath_counting","","","40,39","3165","added!",""
"3779","40","poldrack-single-stim","20","300000","0.0-3.16-0.16","b5a8c975-6c24-4b71-91ed-d5de37562b2f","","3779","0","breath_counting","","","40,39","3779","added!",""
"3116","39","poldrack-single-stim","21","303119","0.0-3.17-0.17","b5a8c975-6c24-4b71-91ed-d5de37562b2f","","3116","0","breath_counting","","","40,39","3116","added!",""
"3063","40","poldrack-single-stim","22","306183","0.0-3.18-0.18","b5a8c975-6c24-4b71-91ed-d5de37562b2f","","3063","0","breath_counting","","","40,39","3063","added!",""
"4174","40","poldrack-single-stim","23","310361","0.0-3.19-0.19","b5a8c975-6c24-4b71-91ed-d5de37562b2f","","4174","0","breath_counting","","","40,39","4174","added!",""
"3412","39","poldrack-single-stim","24","313775","0.0-3.20-0.20","b5a8c975-6c24-4b71-91ed-d5de37562b2f","","3412","0","breath_counting","","","40,39","3412","added!",""
"3182","40","poldrack-single-stim","25","316959","0.0-3.21-0.21","b5a8c975-6c24-4b71-91ed-d5de37562b2f","","3182","0","breath_counting","","","40,39","3182","added!",""
"3245","40","poldrack-single-stim","26","320207","0.0-3.22-0.22","b5a8c975-6c24-4b71-91ed-d5de37562b2f","","3245","0","breath_counting","","","40,39","3245","added!",""
"3081","40","poldrack-single-stim","27","323291","0.0-3.23-0.23","b5a8c975-6c24-4b71-91ed-d5de37562b2f","","3081","0","breath_counting","","","40,39","3081","added!",""
"3298","40","poldrack-single-stim","28","326590","0.0-3.24-0.24","b5a8c975-6c24-4b71-91ed-d5de37562b2f","","3298","0","breath_counting","","","40,39","3298","added!",""
"3141","40","poldrack-single-stim","29","329734","0.0-3.25-0.25","b5a8c975-6c24-4b71-91ed-d5de37562b2f","","3141","0","breath_counting","","","40,39","3141","added!",""
"3023","40","poldrack-single-stim","30","332759","0.0-3.26-0.26","b5a8c975-6c24-4b71-91ed-d5de37562b2f","","3023","0","breath_counting","","","40,39","3023","added!",""
"4208","39","poldrack-single-stim","31","336969","0.0-3.27-0.27","b5a8c975-6c24-4b71-91ed-d5de37562b2f","","4208","0","breath_counting","","","40,39","4208","added!",""
"2516","40","poldrack-single-stim","32","339487","0.0-3.28-0.28","b5a8c975-6c24-4b71-91ed-d5de37562b2f","","2516","0","breath_counting","","","40,39","2516","added!",""
"3006","40","poldrack-single-stim","33","342496","0.0-3.29-0.29","b5a8c975-6c24-4b71-91ed-d5de37562b2f","","3006","0","breath_counting","","","40,39","3006","added!",""
"2661","40","poldrack-single-stim","34","345159","0.0-3.30-0.30","b5a8c975-6c24-4b71-91ed-d5de37562b2f","","2661","0","breath_counting","","","40,39","2661","added!",""
"2663","40","poldrack-single-stim","35","347825","0.0-3.31-0.31","b5a8c975-6c24-4b71-91ed-d5de37562b2f","","2663","0","breath_counting","","","40,39","2663","added!",""
"3269","40","poldrack-single-stim","36","351096","0.0-3.32-0.32","b5a8c975-6c24-4b71-91ed-d5de37562b2f","","3269","0","breath_counting","","","40,39","3269","added!",""
"2669","40","poldrack-single-stim","37","353767","0.0-3.33-0.33","b5a8c975-6c24-4b71-91ed-d5de37562b2f","","2669","0","breath_counting","","","40,39","2669","added!",""
"3278","40","poldrack-single-stim","38","357047","0.0-3.34-0.34","b5a8c975-6c24-4b71-91ed-d5de37562b2f","","3278","0","breath_counting","","","40,39","3278","added!",""
"3119","40","poldrack-single-stim","39","360169","0.0-3.35-0.35","b5a8c975-6c24-4b71-91ed-d5de37562b2f","","3119","0","breath_counting","","","40,39","3119","added!",""
"3028","39","poldrack-single-stim","40","363199","0.0-3.36-0.36","b5a8c975-6c24-4b71-91ed-d5de37562b2f","","3028","0","breath_counting","","","40,39","3028","added!",""
"3422","40","poldrack-single-stim","41","366624","0.0-3.37-0.37","b5a8c975-6c24-4b71-91ed-d5de37562b2f","","3422","0","breath_counting","","","40,39","3422","added!",""
"3172","40","poldrack-single-stim","42","369799","0.0-3.38-0.38","b5a8c975-6c24-4b71-91ed-d5de37562b2f","","3172","0","breath_counting","","","40,39","3172","added!",""
"3039","40","poldrack-single-stim","43","372841","0.0-3.39-0.39","b5a8c975-6c24-4b71-91ed-d5de37562b2f","","3039","0","breath_counting","","","40,39","3039","added!",""
"3148","40","poldrack-single-stim","44","375992","0.0-3.40-0.40","b5a8c975-6c24-4b71-91ed-d5de37562b2f","","3148","0","breath_counting","","","40,39","3148","added!",""
"3061","40","poldrack-single-stim","45","379055","0.0-3.41-0.41","b5a8c975-6c24-4b71-91ed-d5de37562b2f","","3061","0","breath_counting","","","40,39","3061","added!",""
"3500","40","poldrack-single-stim","46","382560","0.0-3.42-0.42","b5a8c975-6c24-4b71-91ed-d5de37562b2f","","3500","0","breath_counting","","","40,39","3500","added!",""
"2847","40","poldrack-single-stim","47","385409","0.0-3.43-0.43","b5a8c975-6c24-4b71-91ed-d5de37562b2f","","2847","0","breath_counting","","","40,39","2847","added!",""
"3132","40","poldrack-single-stim","48","388544","0.0-3.44-0.44","b5a8c975-6c24-4b71-91ed-d5de37562b2f","","3132","0","breath_counting","","","40,39","3132","added!",""
"3013","39","poldrack-single-stim","49","391560","0.0-3.45-0.45","b5a8c975-6c24-4b71-91ed-d5de37562b2f","","3013","0","breath_counting","","","40,39","3013","added!",""
"2797","40","poldrack-single-stim","50","394360","0.0-3.46-0.46","b5a8c975-6c24-4b71-91ed-d5de37562b2f","","2797","0","breath_counting","","","40,39","2797","added!",""
"2942","40","poldrack-single-stim","51","397305","0.0-3.47-0.47","b5a8c975-6c24-4b71-91ed-d5de37562b2f","","2942","0","breath_counting","","","40,39","2942","added!",""
"2636","40","poldrack-single-stim","52","399944","0.0-3.48-0.48","b5a8c975-6c24-4b71-91ed-d5de37562b2f","","2636","0","breath_counting","","","40,39","2636","added!",""
"2548","40","poldrack-single-stim","53","402496","0.0-3.49-0.49","b5a8c975-6c24-4b71-91ed-d5de37562b2f","","2548","0","breath_counting","","","40,39","2548","added!",""
"2837","40","poldrack-single-stim","54","405336","0.0-3.50-0.50","b5a8c975-6c24-4b71-91ed-d5de37562b2f","","2837","0","breath_counting","","","40,39","2837","added!",""
"2703","40","poldrack-single-stim","55","408041","0.0-3.51-0.51","b5a8c975-6c24-4b71-91ed-d5de37562b2f","","2703","0","breath_counting","","","40,39","2703","added!",""
"2588","40","poldrack-single-stim","56","410632","0.0-3.52-0.52","b5a8c975-6c24-4b71-91ed-d5de37562b2f","","2588","0","breath_counting","","","40,39","2588","added!",""
"2797","40","poldrack-single-stim","57","413432","0.0-3.53-0.53","b5a8c975-6c24-4b71-91ed-d5de37562b2f","","2797","0","breath_counting","","","40,39","2797","added!",""
"2676","39","poldrack-single-stim","58","416111","0.0-3.54-0.54","b5a8c975-6c24-4b71-91ed-d5de37562b2f","","2676","0","breath_counting","","","40,39","2676","added!",""
"2807","40","poldrack-single-stim","59","418921","0.0-3.55-0.55","b5a8c975-6c24-4b71-91ed-d5de37562b2f","","2807","0","breath_counting","","","40,39","2807","added!",""
"3634","40","poldrack-single-stim","60","422560","0.0-3.56-0.56","b5a8c975-6c24-4b71-91ed-d5de37562b2f","","3634","0","breath_counting","","","40,39","3634","added!",""
"2957","40","poldrack-single-stim","61","425519","0.0-3.57-0.57","b5a8c975-6c24-4b71-91ed-d5de37562b2f","","2957","0","breath_counting","","","40,39","2957","added!",""
"2734","40","poldrack-single-stim","62","428256","0.0-3.58-0.58","b5a8c975-6c24-4b71-91ed-d5de37562b2f","","2734","0","breath_counting","","","40,39","2734","added!",""
"2505","40","poldrack-single-stim","63","430762","0.0-3.59-0.59","b5a8c975-6c24-4b71-91ed-d5de37562b2f","","2505","0","breath_counting","","","40,39","2505","added!",""
"2698","40","poldrack-single-stim","64","433464","0.0-3.60-0.60","b5a8c975-6c24-4b71-91ed-d5de37562b2f","","2698","0","breath_counting","","","40,39","2698","added!",""
"2669","40","poldrack-single-stim","65","436136","0.0-3.61-0.61","b5a8c975-6c24-4b71-91ed-d5de37562b2f","","2669","0","breath_counting","","","40,39","2669","added!",""
"2700","40","poldrack-single-stim","66","438840","0.0-3.62-0.62","b5a8c975-6c24-4b71-91ed-d5de37562b2f","","2700","0","breath_counting","","","40,39","2700","added!",""
"2711","40","poldrack-single-stim","67","441554","0.0-3.63-0.63","b5a8c975-6c24-4b71-91ed-d5de37562b2f","","2711","0","breath_counting","","","40,39","2711","added!",""
"3027","39","poldrack-single-stim","68","444584","0.0-3.64-0.64","b5a8c975-6c24-4b71-91ed-d5de37562b2f","","3027","0","breath_counting","","","40,39","3027","added!",""
"3125","40","poldrack-single-stim","69","447712","0.0-3.65-0.65","b5a8c975-6c24-4b71-91ed-d5de37562b2f","","3125","0","breath_counting","","","40,39","3125","added!",""
"2669","40","poldrack-single-stim","70","450384","0.0-3.66-0.66","b5a8c975-6c24-4b71-91ed-d5de37562b2f","","2669","0","breath_counting","","","40,39","2669","added!",""
"2798","40","poldrack-single-stim","71","453186","0.0-3.67-0.67","b5a8c975-6c24-4b71-91ed-d5de37562b2f","","2798","0","breath_counting","","","40,39","2798","added!",""
"2794","40","poldrack-single-stim","72","455984","0.0-3.68-0.68","b5a8c975-6c24-4b71-91ed-d5de37562b2f","","2794","0","breath_counting","","","40,39","2794","added!",""
"3172","40","poldrack-single-stim","73","459160","0.0-3.69-0.69","b5a8c975-6c24-4b71-91ed-d5de37562b2f","","3172","0","breath_counting","","","40,39","3172","added!",""
"3061","40","poldrack-single-stim","74","462224","0.0-3.70-0.70","b5a8c975-6c24-4b71-91ed-d5de37562b2f","","3061","0","breath_counting","","","40,39","3061","added!",""
"2550","40","poldrack-single-stim","75","464778","0.0-3.71-0.71","b5a8c975-6c24-4b71-91ed-d5de37562b2f","","2550","0","breath_counting","","","40,39","2550","added!",""
"2675","40","poldrack-single-stim","76","467456","0.0-3.72-0.72","b5a8c975-6c24-4b71-91ed-d5de37562b2f","","2675","0","breath_counting","","","40,39","2675","added!",""
"2396","39","poldrack-single-stim","77","469856","0.0-3.73-0.73","b5a8c975-6c24-4b71-91ed-d5de37562b2f","","2396","0","breath_counting","","","40,39","2396","added!",""
"3109","40","poldrack-single-stim","78","472969","0.0-3.74-0.74","b5a8c975-6c24-4b71-91ed-d5de37562b2f","","3109","0","breath_counting","","","40,39","3109","added!",""
"2958","40","poldrack-single-stim","79","475929","0.0-3.75-0.75","b5a8c975-6c24-4b71-91ed-d5de37562b2f","","2958","0","breath_counting","","","40,39","2958","added!",""
"3132","40","poldrack-single-stim","80","479065","0.0-3.76-0.76","b5a8c975-6c24-4b71-91ed-d5de37562b2f","","3132","0","breath_counting","","","40,39","3132","added!",""
"2965","40","poldrack-single-stim","81","482032","0.0-3.77-0.77","b5a8c975-6c24-4b71-91ed-d5de37562b2f","","2965","0","breath_counting","","","40,39","2965","added!",""
"2892","40","poldrack-single-stim","82","484928","0.0-3.78-0.78","b5a8c975-6c24-4b71-91ed-d5de37562b2f","","2892","0","breath_counting","","","40,39","2892","added!",""
"3101","40","poldrack-single-stim","83","488034","0.0-3.79-0.79","b5a8c975-6c24-4b71-91ed-d5de37562b2f","","3101","0","breath_counting","","","40,39","3101","added!",""
"2900","40","poldrack-single-stim","84","490937","0.0-3.80-0.80","b5a8c975-6c24-4b71-91ed-d5de37562b2f","","2900","0","breath_counting","","","40,39","2900","added!",""
"2861","40","poldrack-single-stim","85","493801","0.0-3.81-0.81","b5a8c975-6c24-4b71-91ed-d5de37562b2f","","2861","0","breath_counting","","","40,39","2861","added!",""
"2677","39","poldrack-single-stim","86","496481","0.0-3.82-0.82","b5a8c975-6c24-4b71-91ed-d5de37562b2f","","2677","0","breath_counting","","","40,39","2677","added!",""
"3030","40","poldrack-single-stim","87","499514","0.0-3.83-0.83","b5a8c975-6c24-4b71-91ed-d5de37562b2f","","3030","0","breath_counting","","","40,39","3030","added!",""
"2667","40","poldrack-single-stim","88","502185","0.0-3.84-0.84","b5a8c975-6c24-4b71-91ed-d5de37562b2f","","2667","0","breath_counting","","","40,39","2667","added!",""
"3260","40","poldrack-single-stim","89","505449","0.0-3.85-0.85","b5a8c975-6c24-4b71-91ed-d5de37562b2f","","3260","0","breath_counting","","","40,39","3260","added!",""
"2757","40","poldrack-single-stim","90","508208","0.0-3.86-0.86","b5a8c975-6c24-4b71-91ed-d5de37562b2f","","2757","0","breath_counting","","","40,39","2757","added!",""
"2949","40","poldrack-single-stim","91","511162","0.0-3.87-0.87","b5a8c975-6c24-4b71-91ed-d5de37562b2f","","2949","0","breath_counting","","","40,39","2949","added!",""
"2923","40","poldrack-single-stim","92","514088","0.0-3.88-0.88","b5a8c975-6c24-4b71-91ed-d5de37562b2f","","2923","0","breath_counting","","","40,39","2923","added!",""
"2891","40","poldrack-single-stim","93","516985","0.0-3.89-0.89","b5a8c975-6c24-4b71-91ed-d5de37562b2f","","2891","0","breath_counting","","","40,39","2891","added!",""
"2569","40","poldrack-single-stim","94","519557","0.0-3.90-0.90","b5a8c975-6c24-4b71-91ed-d5de37562b2f","","2569","0","breath_counting","","","40,39","2569","added!",""
"2676","39","poldrack-single-stim","95","522235","0.0-3.91-0.91","b5a8c975-6c24-4b71-91ed-d5de37562b2f","","2676","0","breath_counting","","","40,39","2676","added!",""
"2490","40","poldrack-single-stim","96","524728","0.0-3.92-0.92","b5a8c975-6c24-4b71-91ed-d5de37562b2f","","2490","0","breath_counting","","","40,39","2490","added!",""
"2805","40","poldrack-single-stim","97","527537","0.0-3.93-0.93","b5a8c975-6c24-4b71-91ed-d5de37562b2f","","2805","0","breath_counting","","","40,39","2805","added!",""
"2829","40","poldrack-single-stim","98","530369","0.0-3.94-0.94","b5a8c975-6c24-4b71-91ed-d5de37562b2f","","2829","0","breath_counting","","","40,39","2829","added!",""
"2846","40","poldrack-single-stim","99","533219","0.0-3.95-0.95","b5a8c975-6c24-4b71-91ed-d5de37562b2f","","2846","0","breath_counting","","","40,39","2846","added!",""
"2859","40","poldrack-single-stim","100","536081","0.0-3.96-0.96","b5a8c975-6c24-4b71-91ed-d5de37562b2f","","2859","0","breath_counting","","","40,39","2859","added!",""
"2532","40","poldrack-single-stim","101","538617","0.0-3.97-0.97","b5a8c975-6c24-4b71-91ed-d5de37562b2f","","2532","0","breath_counting","","","40,39","2532","added!",""
"3250","40","poldrack-single-stim","102","541871","0.0-3.98-0.98","b5a8c975-6c24-4b71-91ed-d5de37562b2f","","3250","0","breath_counting","","","40,39","3250","added!",""
"2681","40","poldrack-single-stim","103","544554","0.0-3.99-0.99","b5a8c975-6c24-4b71-91ed-d5de37562b2f","","2681","0","breath_counting","","","40,39","2681","added!",""
"2626","39","poldrack-single-stim","104","547185","0.0-3.100-0.100","b5a8c975-6c24-4b71-91ed-d5de37562b2f","","2626","0","breath_counting","","","40,39","2626","added!",""
"2740","40","poldrack-single-stim","105","549929","0.0-3.101-0.101","b5a8c975-6c24-4b71-91ed-d5de37562b2f","","2740","0","breath_counting","","","40,39","2740","added!",""
"2820","40","poldrack-single-stim","106","552753","0.0-3.102-0.102","b5a8c975-6c24-4b71-91ed-d5de37562b2f","","2820","0","breath_counting","","","40,39","2820","added!",""
"2781","40","poldrack-single-stim","107","555538","0.0-3.103-0.103","b5a8c975-6c24-4b71-91ed-d5de37562b2f","","2781","0","breath_counting","","","40,39","2781","added!",""
"2995","40","poldrack-single-stim","108","558537","0.0-3.104-0.104","b5a8c975-6c24-4b71-91ed-d5de37562b2f","","2995","0","breath_counting","","","40,39","2995","added!",""
"2732","40","poldrack-single-stim","109","561273","0.0-3.105-0.105","b5a8c975-6c24-4b71-91ed-d5de37562b2f","","2732","0","breath_counting","","","40,39","2732","added!",""
"2747","40","poldrack-single-stim","110","564025","0.0-3.106-0.106","b5a8c975-6c24-4b71-91ed-d5de37562b2f","","2747","0","breath_counting","","","40,39","2747","added!",""
"2860","40","poldrack-single-stim","111","566889","0.0-3.107-0.107","b5a8c975-6c24-4b71-91ed-d5de37562b2f","","2860","0","breath_counting","","","40,39","2860","added!",""
"2653","40","poldrack-single-stim","112","569545","0.0-3.108-0.108","b5a8c975-6c24-4b71-91ed-d5de37562b2f","","2653","0","breath_counting","","","40,39","2653","added!",""
"2988","39","poldrack-single-stim","113","572537","0.0-3.109-0.109","b5a8c975-6c24-4b71-91ed-d5de37562b2f","","2988","0","breath_counting","","","40,39","2988","added!",""
"2347","40","poldrack-single-stim","114","574888","0.0-3.110-0.110","b5a8c975-6c24-4b71-91ed-d5de37562b2f","","2347","0","breath_counting","","","40,39","2347","added!",""
"2584","40","poldrack-single-stim","115","577475","0.0-3.111-0.111","b5a8c975-6c24-4b71-91ed-d5de37562b2f","","2584","0","breath_counting","","","40,39","2584","added!",""
"2530","40","poldrack-single-stim","116","580010","0.0-3.112-0.112","b5a8c975-6c24-4b71-91ed-d5de37562b2f","","2530","0","breath_counting","","","40,39","2530","added!",""
"3068","40","poldrack-single-stim","117","583081","0.0-3.113-0.113","b5a8c975-6c24-4b71-91ed-d5de37562b2f","","3068","0","breath_counting","","","40,39","3068","added!",""
"2770","40","poldrack-single-stim","118","585858","0.0-3.114-0.114","b5a8c975-6c24-4b71-91ed-d5de37562b2f","","2770","0","breath_counting","","","40,39","2770","added!",""
"2205","40","poldrack-single-stim","119","588076","0.0-3.115-0.115","b5a8c975-6c24-4b71-91ed-d5de37562b2f","","2205","0","breath_counting","","","40,39","2205","added!",""
"2579","40","poldrack-single-stim","120","590658","0.0-3.116-0.116","b5a8c975-6c24-4b71-91ed-d5de37562b2f","","2579","0","breath_counting","","","40,39","2579","added!",""
"2675","40","poldrack-single-stim","121","593337","0.0-3.117-0.117","b5a8c975-6c24-4b71-91ed-d5de37562b2f","","2675","0","breath_counting","","","40,39","2675","added!",""
"2563","39","poldrack-single-stim","122","595904","0.0-3.118-0.118","b5a8c975-6c24-4b71-91ed-d5de37562b2f","","2563","0","breath_counting","","","40,39","2563","added!",""
"2448","40","poldrack-single-stim","123","598355","0.0-3.119-0.119","b5a8c975-6c24-4b71-91ed-d5de37562b2f","","2448","0","breath_counting","","","40,39","2448","added!",""
"2378","40","poldrack-single-stim","124","600737","0.0-3.120-0.120","b5a8c975-6c24-4b71-91ed-d5de37562b2f","","2378","0","breath_counting","","","40,39","2378","added!",""
"2411","40","poldrack-single-stim","125","603153","0.0-3.121-0.121","b5a8c975-6c24-4b71-91ed-d5de37562b2f","","2411","0","breath_counting","","","40,39","2411","added!",""
"3541","40","poldrack-single-stim","126","606697","0.0-3.122-0.122","b5a8c975-6c24-4b71-91ed-d5de37562b2f","","3541","0","breath_counting","","","40,39","3541","added!",""
"3005","40","poldrack-single-stim","127","609707","0.0-3.123-0.123","b5a8c975-6c24-4b71-91ed-d5de37562b2f","","3005","0","breath_counting","","","40,39","3005","added!",""
"2787","40","poldrack-single-stim","128","612498","0.0-3.124-0.124","b5a8c975-6c24-4b71-91ed-d5de37562b2f","","2787","0","breath_counting","","","40,39","2787","added!",""
"3419","40","poldrack-single-stim","129","615920","0.0-3.125-0.125","b5a8c975-6c24-4b71-91ed-d5de37562b2f","","3419","0","breath_counting","","","40,39","3419","added!",""
"5222","40","poldrack-single-stim","130","621147","0.0-3.126-0.126","b5a8c975-6c24-4b71-91ed-d5de37562b2f","","5222","0","breath_counting","","","40,39","5222","added!",""
"3075","39","poldrack-single-stim","131","624226","0.0-3.127-0.127","b5a8c975-6c24-4b71-91ed-d5de37562b2f","","3075","0","breath_counting","","","40,39","3075","added!",""
"3834","40","poldrack-single-stim","132","628066","0.0-3.128-0.128","b5a8c975-6c24-4b71-91ed-d5de37562b2f","","3834","0","breath_counting","","","40,39","3834","added!",""
"2708","40","poldrack-single-stim","133","630778","0.0-3.129-0.129","b5a8c975-6c24-4b71-91ed-d5de37562b2f","","2708","0","breath_counting","","","40,39","2708","added!",""
"2949","40","poldrack-single-stim","134","633731","0.0-3.130-0.130","b5a8c975-6c24-4b71-91ed-d5de37562b2f","","2949","0","breath_counting","","","40,39","2949","added!",""
"3819","40","poldrack-single-stim","135","637554","0.0-3.131-0.131","b5a8c975-6c24-4b71-91ed-d5de37562b2f","","3819","0","breath_counting","","","40,39","3819","added!",""
"3100","40","poldrack-single-stim","136","640658","0.0-3.132-0.132","b5a8c975-6c24-4b71-91ed-d5de37562b2f","","3100","0","breath_counting","","","40,39","3100","added!",""
"3189","40","poldrack-single-stim","137","643852","0.0-3.133-0.133","b5a8c975-6c24-4b71-91ed-d5de37562b2f","","3189","0","breath_counting","","","40,39","3189","added!",""
"3294","40","poldrack-single-stim","138","647154","0.0-3.134-0.134","b5a8c975-6c24-4b71-91ed-d5de37562b2f","","3294","0","breath_counting","","","40,39","3294","added!",""
"3051","40","poldrack-single-stim","139","650210","0.0-3.135-0.135","b5a8c975-6c24-4b71-91ed-d5de37562b2f","","3051","0","breath_counting","","","40,39","3051","added!",""
"2988","39","poldrack-single-stim","140","653202","0.0-3.136-0.136","b5a8c975-6c24-4b71-91ed-d5de37562b2f","","2988","0","breath_counting","","","40,39","2988","added!",""
"7166","40","poldrack-single-stim","141","660372","0.0-3.137-0.137","b5a8c975-6c24-4b71-91ed-d5de37562b2f","","7166","0","breath_counting","","","40,39","7166","added!",""
"4626","40","poldrack-single-stim","142","665002","0.0-3.138-0.138","b5a8c975-6c24-4b71-91ed-d5de37562b2f","","4626","0","breath_counting","","","40,39","4626","added!",""
"4115","40","poldrack-single-stim","143","669122","0.0-3.139-0.139","b5a8c975-6c24-4b71-91ed-d5de37562b2f","","4115","0","breath_counting","","","40,39","4115","added!",""
"2685","40","poldrack-single-stim","144","671811","0.0-3.140-0.140","b5a8c975-6c24-4b71-91ed-d5de37562b2f","","2685","0","breath_counting","","","40,39","2685","added!",""
"3200","40","poldrack-single-stim","145","675018","0.0-3.141-0.141","b5a8c975-6c24-4b71-91ed-d5de37562b2f","","3200","0","breath_counting","","","40,39","3200","added!",""
"3150","40","poldrack-single-stim","146","678172","0.0-3.142-0.142","b5a8c975-6c24-4b71-91ed-d5de37562b2f","","3150","0","breath_counting","","","40,39","3150","added!",""
"2697","40","poldrack-single-stim","147","680873","0.0-3.143-0.143","b5a8c975-6c24-4b71-91ed-d5de37562b2f","","2697","0","breath_counting","","","40,39","2697","added!",""
"2743","39","poldrack-single-stim","148","683620","0.0-3.144-0.144","b5a8c975-6c24-4b71-91ed-d5de37562b2f","","2743","0","breath_counting","","","40,39","2743","added!",""
"3858","40","poldrack-single-stim","149","687483","0.0-3.145-0.145","b5a8c975-6c24-4b71-91ed-d5de37562b2f","","3858","0","breath_counting","","","40,39","3858","added!",""
"3634","40","poldrack-single-stim","150","691121","0.0-3.146-0.146","b5a8c975-6c24-4b71-91ed-d5de37562b2f","","3634","0","breath_counting","","","40,39","3634","added!",""
"2900","40","poldrack-single-stim","151","694026","0.0-3.147-0.147","b5a8c975-6c24-4b71-91ed-d5de37562b2f","","2900","0","breath_counting","","","40,39","2900","added!",""
"4836","40","poldrack-single-stim","152","698866","0.0-3.148-0.148","b5a8c975-6c24-4b71-91ed-d5de37562b2f","","4836","0","breath_counting","","","40,39","4836","added!",""
"3244","40","poldrack-single-stim","153","702114","0.0-3.149-0.149","b5a8c975-6c24-4b71-91ed-d5de37562b2f","","3244","0","breath_counting","","","40,39","3244","added!",""
"4333","40","poldrack-single-stim","154","706452","0.0-3.150-0.150","b5a8c975-6c24-4b71-91ed-d5de37562b2f","","4333","0","breath_counting","","","40,39","4333","added!",""
"2643","40","poldrack-single-stim","155","709098","0.0-3.151-0.151","b5a8c975-6c24-4b71-91ed-d5de37562b2f","","2643","0","breath_counting","","","40,39","2643","added!",""
"2484","40","poldrack-single-stim","156","711587","0.0-3.152-0.152","b5a8c975-6c24-4b71-91ed-d5de37562b2f","","2484","0","breath_counting","","","40,39","2484","added!",""
"2666","39","poldrack-single-stim","157","714259","0.0-3.153-0.153","b5a8c975-6c24-4b71-91ed-d5de37562b2f","","2666","0","breath_counting","","","40,39","2666","added!",""
"2780","40","poldrack-single-stim","158","717043","0.0-3.154-0.154","b5a8c975-6c24-4b71-91ed-d5de37562b2f","","2780","0","breath_counting","","","40,39","2780","added!",""
"3075","40","poldrack-single-stim","159","720122","0.0-3.155-0.155","b5a8c975-6c24-4b71-91ed-d5de37562b2f","","3075","0","breath_counting","","","40,39","3075","added!",""
"7023","40","poldrack-single-stim","160","727149","0.0-3.156-0.156","b5a8c975-6c24-4b71-91ed-d5de37562b2f","","7023","0","breath_counting","","","40,39","7023","added!",""
"3568","40","poldrack-single-stim","161","730723","0.0-3.157-0.157","b5a8c975-6c24-4b71-91ed-d5de37562b2f","","3568","0","breath_counting","","","40,39","3568","added!",""
"2244","40","poldrack-single-stim","162","732971","0.0-3.158-0.158","b5a8c975-6c24-4b71-91ed-d5de37562b2f","","2244","0","breath_counting","","","40,39","2244","added!",""
"4003","40","poldrack-single-stim","163","736979","0.0-3.159-0.159","b5a8c975-6c24-4b71-91ed-d5de37562b2f","","4003","0","breath_counting","","","40,39","4003","added!",""
"2597","40","poldrack-single-stim","164","739580","0.0-3.160-0.160","b5a8c975-6c24-4b71-91ed-d5de37562b2f","","2597","0","breath_counting","","","40,39","2597","added!",""
"2242","39","poldrack-single-stim","165","741827","0.0-3.161-0.161","b5a8c975-6c24-4b71-91ed-d5de37562b2f","","2242","0","breath_counting","","","40,39","2242","added!",""
"2731","40","poldrack-single-stim","166","744563","0.0-3.162-0.162","b5a8c975-6c24-4b71-91ed-d5de37562b2f","","2731","0","breath_counting","","","40,39","2731","added!",""
"2771","40","poldrack-single-stim","167","747339","0.0-3.163-0.163","b5a8c975-6c24-4b71-91ed-d5de37562b2f","","2771","0","breath_counting","","","40,39","2771","added!",""
"2908","40","poldrack-single-stim","168","750253","0.0-3.164-0.164","b5a8c975-6c24-4b71-91ed-d5de37562b2f","","2908","0","breath_counting","","","40,39","2908","added!",""
"2784","40","poldrack-single-stim","169","753042","0.0-3.165-0.165","b5a8c975-6c24-4b71-91ed-d5de37562b2f","","2784","0","breath_counting","","","40,39","2784","added!",""
"3029","40","poldrack-single-stim","170","756074","0.0-3.166-0.166","b5a8c975-6c24-4b71-91ed-d5de37562b2f","","3029","0","breath_counting","","","40,39","3029","added!",""
"2613","40","poldrack-single-stim","171","758691","0.0-3.167-0.167","b5a8c975-6c24-4b71-91ed-d5de37562b2f","","2613","0","breath_counting","","","40,39","2613","added!",""
"2692","40","poldrack-single-stim","172","761388","0.0-3.168-0.168","b5a8c975-6c24-4b71-91ed-d5de37562b2f","","2692","0","breath_counting","","","40,39","2692","added!",""
"3450","40","poldrack-single-stim","173","764843","0.0-3.169-0.169","b5a8c975-6c24-4b71-91ed-d5de37562b2f","","3450","0","breath_counting","","","40,39","3450","added!",""
"2586","39","poldrack-single-stim","174","767434","0.0-3.170-0.170","b5a8c975-6c24-4b71-91ed-d5de37562b2f","","2586","0","breath_counting","","","40,39","2586","added!",""
"2772","40","poldrack-single-stim","175","770211","0.0-3.171-0.171","b5a8c975-6c24-4b71-91ed-d5de37562b2f","","2772","0","breath_counting","","","40,39","2772","added!",""
"3173","40","poldrack-single-stim","176","773389","0.0-3.172-0.172","b5a8c975-6c24-4b71-91ed-d5de37562b2f","","3173","0","breath_counting","","","40,39","3173","added!",""
"2731","40","poldrack-single-stim","177","776123","0.0-3.173-0.173","b5a8c975-6c24-4b71-91ed-d5de37562b2f","","2731","0","breath_counting","","","40,39","2731","added!",""
"3003","40","poldrack-single-stim","178","779130","0.0-3.174-0.174","b5a8c975-6c24-4b71-91ed-d5de37562b2f","","3003","0","breath_counting","","","40,39","3003","added!",""
"2946","40","poldrack-single-stim","179","782082","0.0-3.175-0.175","b5a8c975-6c24-4b71-91ed-d5de37562b2f","","2946","0","breath_counting","","","40,39","2946","added!",""
"2831","40","poldrack-single-stim","180","784916","0.0-3.176-0.176","b5a8c975-6c24-4b71-91ed-d5de37562b2f","","2831","0","breath_counting","","","40,39","2831","added!",""
"2715","40","poldrack-single-stim","181","787635","0.0-3.177-0.177","b5a8c975-6c24-4b71-91ed-d5de37562b2f","","2715","0","breath_counting","","","40,39","2715","added!",""
"2683","40","poldrack-single-stim","182","790323","0.0-3.178-0.178","b5a8c975-6c24-4b71-91ed-d5de37562b2f","","2683","0","breath_counting","","","40,39","2683","added!",""
"2667","39","poldrack-single-stim","183","792995","0.0-3.179-0.179","b5a8c975-6c24-4b71-91ed-d5de37562b2f","","2667","0","breath_counting","","","40,39","2667","added!",""
"3467","40","poldrack-single-stim","184","796469","0.0-3.180-0.180","b5a8c975-6c24-4b71-91ed-d5de37562b2f","","3467","0","breath_counting","","","40,39","3467","added!",""
"2530","40","poldrack-single-stim","185","799003","0.0-3.181-0.181","b5a8c975-6c24-4b71-91ed-d5de37562b2f","","2530","0","breath_counting","","","40,39","2530","added!",""
"2930","40","poldrack-single-stim","186","801939","0.0-3.182-0.182","b5a8c975-6c24-4b71-91ed-d5de37562b2f","","2930","0","breath_counting","","","40,39","2930","added!",""
"3316","40","poldrack-single-stim","187","805260","0.0-3.183-0.183","b5a8c975-6c24-4b71-91ed-d5de37562b2f","","3316","0","breath_counting","","","40,39","3316","added!",""
"3205","40","poldrack-single-stim","188","808469","0.0-3.184-0.184","b5a8c975-6c24-4b71-91ed-d5de37562b2f","","3205","0","breath_counting","","","40,39","3205","added!",""
"2904","40","poldrack-single-stim","189","811379","0.0-3.185-0.185","b5a8c975-6c24-4b71-91ed-d5de37562b2f","","2904","0","breath_counting","","","40,39","2904","added!",""
"3236","40","poldrack-single-stim","190","814620","0.0-3.186-0.186","b5a8c975-6c24-4b71-91ed-d5de37562b2f","","3236","0","breath_counting","","","40,39","3236","added!",""
"3771","40","poldrack-single-stim","191","818396","0.0-3.187-0.187","b5a8c975-6c24-4b71-91ed-d5de37562b2f","","3771","0","breath_counting","","","40,39","3771","added!",""
"2589","39","poldrack-single-stim","192","820989","0.0-3.188-0.188","b5a8c975-6c24-4b71-91ed-d5de37562b2f","","2589","0","breath_counting","","","40,39","2589","added!",""
"2674","40","poldrack-single-stim","193","823668","0.0-3.189-0.189","b5a8c975-6c24-4b71-91ed-d5de37562b2f","","2674","0","breath_counting","","","40,39","2674","added!",""
"4154","40","poldrack-single-stim","194","827828","0.0-3.190-0.190","b5a8c975-6c24-4b71-91ed-d5de37562b2f","","4154","0","breath_counting","","","40,39","4154","added!",""
"3115","40","poldrack-single-stim","195","830948","0.0-3.191-0.191","b5a8c975-6c24-4b71-91ed-d5de37562b2f","","3115","0","breath_counting","","","40,39","3115","added!",""
"3269","40","poldrack-single-stim","196","834222","0.0-3.192-0.192","b5a8c975-6c24-4b71-91ed-d5de37562b2f","","3269","0","breath_counting","","","40,39","3269","added!",""
"2721","40","poldrack-single-stim","197","836948","0.0-3.193-0.193","b5a8c975-6c24-4b71-91ed-d5de37562b2f","","2721","0","breath_counting","","","40,39","2721","added!",""
"4699","40","poldrack-single-stim","198","841652","0.0-3.194-0.194","b5a8c975-6c24-4b71-91ed-d5de37562b2f","","4699","0","breath_counting","","","40,39","4699","added!",""
"3242","40","poldrack-single-stim","199","844901","0.0-3.195-0.195","b5a8c975-6c24-4b71-91ed-d5de37562b2f","","3242","0","breath_counting","","","40,39","3242","added!",""
"2826","40","poldrack-single-stim","200","847732","0.0-3.196-0.196","b5a8c975-6c24-4b71-91ed-d5de37562b2f","","2826","0","breath_counting","","","40,39","2826","added!",""
"2112","39","poldrack-single-stim","201","849848","0.0-3.197-0.197","b5a8c975-6c24-4b71-91ed-d5de37562b2f","","2112","0","breath_counting","","","40,39","2112","added!",""
"2329","40","poldrack-single-stim","202","852180","0.0-3.198-0.198","b5a8c975-6c24-4b71-91ed-d5de37562b2f","","2329","0","breath_counting","","","40,39","2329","added!",""
"2163","40","poldrack-single-stim","203","854348","0.0-3.199-0.199","b5a8c975-6c24-4b71-91ed-d5de37562b2f","","2163","0","breath_counting","","","40,39","2163","added!",""
"2699","40","poldrack-single-stim","204","857053","0.0-3.200-0.200","b5a8c975-6c24-4b71-91ed-d5de37562b2f","","2699","0","breath_counting","","","40,39","2699","added!",""
"2234","40","poldrack-single-stim","205","859292","0.0-3.201-0.201","b5a8c975-6c24-4b71-91ed-d5de37562b2f","","2234","0","breath_counting","","","40,39","2234","added!",""
"2250","40","poldrack-single-stim","206","861548","0.0-3.202-0.202","b5a8c975-6c24-4b71-91ed-d5de37562b2f","","2250","0","breath_counting","","","40,39","2250","added!",""
"2522","40","poldrack-single-stim","207","864075","0.0-3.203-0.203","b5a8c975-6c24-4b71-91ed-d5de37562b2f","","2522","0","breath_counting","","","40,39","2522","added!",""
"2826","40","poldrack-single-stim","208","866908","0.0-3.204-0.204","b5a8c975-6c24-4b71-91ed-d5de37562b2f","","2826","0","breath_counting","","","40,39","2826","added!",""
"2821","40","poldrack-single-stim","209","869734","0.0-3.205-0.205","b5a8c975-6c24-4b71-91ed-d5de37562b2f","","2821","0","breath_counting","","","40,39","2821","added!",""
"3649","39","poldrack-single-stim","210","873388","0.0-3.206-0.206","b5a8c975-6c24-4b71-91ed-d5de37562b2f","","3649","0","breath_counting","","","40,39","3649","added!",""
"2468","40","poldrack-single-stim","211","875860","0.0-3.207-0.207","b5a8c975-6c24-4b71-91ed-d5de37562b2f","","2468","0","breath_counting","","","40,39","2468","added!",""
"2955","40","poldrack-single-stim","212","878820","0.0-3.208-0.208","b5a8c975-6c24-4b71-91ed-d5de37562b2f","","2955","0","breath_counting","","","40,39","2955","added!",""
"3539","40","poldrack-single-stim","213","882365","0.0-3.209-0.209","b5a8c975-6c24-4b71-91ed-d5de37562b2f","","3539","0","breath_counting","","","40,39","3539","added!",""
"3720","40","poldrack-single-stim","214","886091","0.0-3.210-0.210","b5a8c975-6c24-4b71-91ed-d5de37562b2f","","3720","0","breath_counting","","","40,39","3720","added!",""
"3332","40","poldrack-single-stim","215","889428","0.0-3.211-0.211","b5a8c975-6c24-4b71-91ed-d5de37562b2f","","3332","0","breath_counting","","","40,39","3332","added!",""
"4661","40","poldrack-single-stim","216","894094","0.0-3.212-0.212","b5a8c975-6c24-4b71-91ed-d5de37562b2f","","4661","0","breath_counting","","","40,39","4661","added!",""
"4016","40","poldrack-single-stim","217","898117","0.0-3.213-0.213","b5a8c975-6c24-4b71-91ed-d5de37562b2f","","4016","0","breath_counting","","","40,39","4016","added!",""
"3058","39","poldrack-single-stim","218","901180","0.0-3.214-0.214","b5a8c975-6c24-4b71-91ed-d5de37562b2f","","3058","0","breath_counting","","","40,39","3058","added!",""
"3270","40","poldrack-single-stim","219","904453","0.0-3.215-0.215","b5a8c975-6c24-4b71-91ed-d5de37562b2f","","3270","0","breath_counting","","","40,39","3270","added!",""
"2985","40","poldrack-single-stim","220","907444","0.0-3.216-0.216","b5a8c975-6c24-4b71-91ed-d5de37562b2f","","2985","0","breath_counting","","","40,39","2985","added!",""
"2931","40","poldrack-single-stim","221","910380","0.0-3.217-0.217","b5a8c975-6c24-4b71-91ed-d5de37562b2f","","2931","0","breath_counting","","","40,39","2931","added!",""
"4628","40","poldrack-single-stim","222","915014","0.0-3.218-0.218","b5a8c975-6c24-4b71-91ed-d5de37562b2f","","4628","0","breath_counting","","","40,39","4628","added!",""
"2761","40","poldrack-single-stim","223","917781","0.0-3.219-0.219","b5a8c975-6c24-4b71-91ed-d5de37562b2f","","2761","0","breath_counting","","","40,39","2761","added!",""
"3635","40","poldrack-single-stim","224","921420","0.0-3.220-0.220","b5a8c975-6c24-4b71-91ed-d5de37562b2f","","3635","0","breath_counting","","","40,39","3635","added!",""
"3483","40","poldrack-single-stim","225","924909","0.0-3.221-0.221","b5a8c975-6c24-4b71-91ed-d5de37562b2f","","3483","0","breath_counting","","","40,39","3483","added!",""
"3658","39","poldrack-single-stim","226","928574","0.0-3.222-0.222","b5a8c975-6c24-4b71-91ed-d5de37562b2f","","3658","0","breath_counting","","","40,39","3658","added!",""
"3330","40","poldrack-single-stim","227","931909","0.0-3.223-0.223","b5a8c975-6c24-4b71-91ed-d5de37562b2f","","3330","0","breath_counting","","","40,39","3330","added!",""
"2498","40","poldrack-single-stim","228","934412","0.0-3.224-0.224","b5a8c975-6c24-4b71-91ed-d5de37562b2f","","2498","0","breath_counting","","","40,39","2498","added!",""
"2410","40","poldrack-single-stim","229","936828","0.0-3.225-0.225","b5a8c975-6c24-4b71-91ed-d5de37562b2f","","2410","0","breath_counting","","","40,39","2410","added!",""
"2762","40","poldrack-single-stim","230","939597","0.0-3.226-0.226","b5a8c975-6c24-4b71-91ed-d5de37562b2f","","2762","0","breath_counting","","","40,39","2762","added!",""
"3139","40","poldrack-single-stim","231","942740","0.0-3.227-0.227","b5a8c975-6c24-4b71-91ed-d5de37562b2f","","3139","0","breath_counting","","","40,39","3139","added!",""
"2955","40","poldrack-single-stim","232","945700","0.0-3.228-0.228","b5a8c975-6c24-4b71-91ed-d5de37562b2f","","2955","0","breath_counting","","","40,39","2955","added!",""
"3013","40","poldrack-single-stim","233","948716","0.0-3.229-0.229","b5a8c975-6c24-4b71-91ed-d5de37562b2f","","3013","0","breath_counting","","","40,39","3013","added!",""
"2827","40","poldrack-single-stim","234","951551","0.0-3.230-0.230","b5a8c975-6c24-4b71-91ed-d5de37562b2f","","2827","0","breath_counting","","","40,39","2827","added!",""
"3112","39","poldrack-single-stim","235","954669","0.0-3.231-0.231","b5a8c975-6c24-4b71-91ed-d5de37562b2f","","3112","0","breath_counting","","","40,39","3112","added!",""
"2691","40","poldrack-single-stim","236","957365","0.0-3.232-0.232","b5a8c975-6c24-4b71-91ed-d5de37562b2f","","2691","0","breath_counting","","","40,39","2691","added!",""
"3811","40","poldrack-single-stim","237","961181","0.0-3.233-0.233","b5a8c975-6c24-4b71-91ed-d5de37562b2f","","3811","0","breath_counting","","","40,39","3811","added!",""
"3810","40","poldrack-single-stim","238","964998","0.0-3.234-0.234","b5a8c975-6c24-4b71-91ed-d5de37562b2f","","3810","0","breath_counting","","","40,39","3810","added!",""
"7473","40","poldrack-single-stim","239","972477","0.0-3.235-0.235","b5a8c975-6c24-4b71-91ed-d5de37562b2f","","7473","0","breath_counting","","","40,39","7473","added!",""
"4212","40","poldrack-single-stim","240","976695","0.0-3.236-0.236","b5a8c975-6c24-4b71-91ed-d5de37562b2f","","4212","0","breath_counting","","","40,39","4212","added!",""
"11323","40","poldrack-single-stim","241","988022","0.0-3.237-0.237","b5a8c975-6c24-4b71-91ed-d5de37562b2f","","11323","0","breath_counting","","","40,39","11323","added!",""
"3696","39","poldrack-single-stim","242","991725","0.0-3.238-0.238","b5a8c975-6c24-4b71-91ed-d5de37562b2f","","3696","0","breath_counting","","","40,39","3696","added!",""
"3132","40","poldrack-single-stim","243","994861","0.0-3.239-0.239","b5a8c975-6c24-4b71-91ed-d5de37562b2f","","3132","0","breath_counting","","","40,39","3132","added!",""
"3146","40","poldrack-single-stim","244","998013","0.0-3.240-0.240","b5a8c975-6c24-4b71-91ed-d5de37562b2f","","3146","0","breath_counting","","","40,39","3146","added!",""
"3203","40","poldrack-single-stim","245","1001222","0.0-3.241-0.241","b5a8c975-6c24-4b71-91ed-d5de37562b2f","","3203","0","breath_counting","","","40,39","3203","added!",""
"3304","40","poldrack-single-stim","246","1004533","0.0-3.242-0.242","b5a8c975-6c24-4b71-91ed-d5de37562b2f","","3304","0","breath_counting","","","40,39","3304","added!",""
"2793","40","poldrack-single-stim","247","1007332","0.0-3.243-0.243","b5a8c975-6c24-4b71-91ed-d5de37562b2f","","2793","0","breath_counting","","","40,39","2793","added!",""
"2755","40","poldrack-single-stim","248","1010092","0.0-3.244-0.244","b5a8c975-6c24-4b71-91ed-d5de37562b2f","","2755","0","breath_counting","","","40,39","2755","added!",""
"2852","40","poldrack-single-stim","249","1012950","0.0-3.245-0.245","b5a8c975-6c24-4b71-91ed-d5de37562b2f","","2852","0","breath_counting","","","40,39","2852","added!",""
"2822","40","poldrack-single-stim","250","1015780","0.0-3.246-0.246","b5a8c975-6c24-4b71-91ed-d5de37562b2f","","2822","0","breath_counting","","","40,39","2822","added!",""
"2812","39","poldrack-single-stim","251","1018597","0.0-3.247-0.247","b5a8c975-6c24-4b71-91ed-d5de37562b2f","","2812","0","breath_counting","","","40,39","2812","added!",""
"2323","40","poldrack-single-stim","252","1020924","0.0-3.248-0.248","b5a8c975-6c24-4b71-91ed-d5de37562b2f","","2323","0","breath_counting","","","40,39","2323","added!",""
"2461","40","poldrack-single-stim","253","1023392","0.0-3.249-0.249","b5a8c975-6c24-4b71-91ed-d5de37562b2f","","2461","0","breath_counting","","","40,39","2461","added!",""
"2673","40","poldrack-single-stim","254","1026069","0.0-3.250-0.250","b5a8c975-6c24-4b71-91ed-d5de37562b2f","","2673","0","breath_counting","","","40,39","2673","added!",""
"2986","40","poldrack-single-stim","255","1029061","0.0-3.251-0.251","b5a8c975-6c24-4b71-91ed-d5de37562b2f","","2986","0","breath_counting","","","40,39","2986","added!",""
"2898","40","poldrack-single-stim","256","1031965","0.0-3.252-0.252","b5a8c975-6c24-4b71-91ed-d5de37562b2f","","2898","0","breath_counting","","","40,39","2898","added!",""
"3290","40","poldrack-single-stim","257","1035260","0.0-3.253-0.253","b5a8c975-6c24-4b71-91ed-d5de37562b2f","","3290","0","breath_counting","","","40,39","3290","added!",""
"2308","40","poldrack-single-stim","258","1037574","0.0-3.254-0.254","b5a8c975-6c24-4b71-91ed-d5de37562b2f","","2308","0","breath_counting","","","40,39","2308","added!",""
"2801","40","poldrack-single-stim","259","1040381","0.0-3.255-0.255","b5a8c975-6c24-4b71-91ed-d5de37562b2f","","2801","0","breath_counting","","","40,39","2801","added!",""
"6100","40","poldrack-single-stim","260","1046487","0.0-3.256-0.256","b5a8c975-6c24-4b71-91ed-d5de37562b2f","","6100","0","breath_counting","","","40,39","6100","added!",""
"2918","40","poldrack-single-stim","261","1049413","0.0-3.257-0.257","b5a8c975-6c24-4b71-91ed-d5de37562b2f","","2918","0","breath_counting","","","40,39","2918","added!",""
"3267","40","poldrack-single-stim","262","1052686","0.0-3.258-0.258","b5a8c975-6c24-4b71-91ed-d5de37562b2f","","3267","0","breath_counting","","","40,39","3267","added!",""
"2906","40","poldrack-single-stim","263","1055598","0.0-3.259-0.259","b5a8c975-6c24-4b71-91ed-d5de37562b2f","","2906","0","breath_counting","","","40,39","2906","added!",""
"2771","40","poldrack-single-stim","264","1058375","0.0-3.260-0.260","b5a8c975-6c24-4b71-91ed-d5de37562b2f","","2771","0","breath_counting","","","40,39","2771","added!",""
"2690","40","poldrack-single-stim","265","1061070","0.0-3.261-0.261","b5a8c975-6c24-4b71-91ed-d5de37562b2f","","2690","0","breath_counting","","","40,39","2690","added!",""
"2937","40","poldrack-single-stim","266","1064014","0.0-3.262-0.262","b5a8c975-6c24-4b71-91ed-d5de37562b2f","","2937","0","breath_counting","","","40,39","2937","added!",""
"2529","39","poldrack-single-stim","267","1066549","0.0-3.263-0.263","b5a8c975-6c24-4b71-91ed-d5de37562b2f","","2529","0","breath_counting","","","40,39","2529","added!",""
"1993","40","poldrack-single-stim","268","1068551","0.0-3.264-0.264","b5a8c975-6c24-4b71-91ed-d5de37562b2f","","1993","0","breath_counting","","","40,39","1993","added!",""
"2480","40","poldrack-single-stim","269","1071038","0.0-3.265-0.265","b5a8c975-6c24-4b71-91ed-d5de37562b2f","","2480","0","breath_counting","","","40,39","2480","added!",""
"2726","40","poldrack-single-stim","270","1073766","0.0-3.266-0.266","b5a8c975-6c24-4b71-91ed-d5de37562b2f","","2726","0","breath_counting","","","40,39","2726","added!",""
"3162","40","poldrack-single-stim","271","1076933","0.0-3.267-0.267","b5a8c975-6c24-4b71-91ed-d5de37562b2f","","3162","0","breath_counting","","","40,39","3162","added!",""
"2635","40","poldrack-single-stim","272","1079575","0.0-3.268-0.268","b5a8c975-6c24-4b71-91ed-d5de37562b2f","","2635","0","breath_counting","","","40,39","2635","added!",""
"3007","40","poldrack-single-stim","273","1082589","0.0-3.269-0.269","b5a8c975-6c24-4b71-91ed-d5de37562b2f","","3007","0","breath_counting","","","40,39","3007","added!",""
"2892","40","poldrack-single-stim","274","1085485","0.0-3.270-0.270","b5a8c975-6c24-4b71-91ed-d5de37562b2f","","2892","0","breath_counting","","","40,39","2892","added!",""
"2969","40","poldrack-single-stim","275","1088462","0.0-3.271-0.271","b5a8c975-6c24-4b71-91ed-d5de37562b2f","","2969","0","breath_counting","","","40,39","2969","added!",""
"2252","39","poldrack-single-stim","276","1090720","0.0-3.272-0.272","b5a8c975-6c24-4b71-91ed-d5de37562b2f","","2252","0","breath_counting","","","40,39","2252","added!",""
"2736","40","poldrack-single-stim","277","1093462","0.0-3.273-0.273","b5a8c975-6c24-4b71-91ed-d5de37562b2f","","2736","0","breath_counting","","","40,39","2736","added!",""
"2466","40","poldrack-single-stim","278","1095935","0.0-3.274-0.274","b5a8c975-6c24-4b71-91ed-d5de37562b2f","","2466","0","breath_counting","","","40,39","2466","added!",""
"2674","40","poldrack-single-stim","279","1098614","0.0-3.275-0.275","b5a8c975-6c24-4b71-91ed-d5de37562b2f","","2674","0","breath_counting","","","40,39","2674","added!",""
"4363","40","poldrack-single-stim","280","1102985","0.0-3.276-0.276","b5a8c975-6c24-4b71-91ed-d5de37562b2f","","4363","0","breath_counting","","","40,39","4363","added!",""
"3687","40","poldrack-single-stim","281","1106678","0.0-3.277-0.277","b5a8c975-6c24-4b71-91ed-d5de37562b2f","","3687","0","breath_counting","","","40,39","3687","added!",""
"2049","40","poldrack-single-stim","282","1108734","0.0-3.278-0.278","b5a8c975-6c24-4b71-91ed-d5de37562b2f","","2049","0","breath_counting","","","40,39","2049","added!",""
"3058","40","poldrack-single-stim","283","1111798","0.0-3.279-0.279","b5a8c975-6c24-4b71-91ed-d5de37562b2f","","3058","0","breath_counting","","","40,39","3058","added!",""
"5108","40","poldrack-single-stim","284","1116912","0.0-3.280-0.280","b5a8c975-6c24-4b71-91ed-d5de37562b2f","","5108","0","breath_counting","","","40,39","5108","added!",""
"2470","39","poldrack-single-stim","285","1119389","0.0-3.281-0.281","b5a8c975-6c24-4b71-91ed-d5de37562b2f","","2470","0","breath_counting","","","40,39","2470","added!",""
"2307","40","poldrack-single-stim","286","1121702","0.0-3.282-0.282","b5a8c975-6c24-4b71-91ed-d5de37562b2f","","2307","0","breath_counting","","","40,39","2307","added!",""
"2308","40","poldrack-single-stim","287","1124016","0.0-3.283-0.283","b5a8c975-6c24-4b71-91ed-d5de37562b2f","","2308","0","breath_counting","","","40,39","2308","added!",""
"2281","40","poldrack-single-stim","288","1126302","0.0-3.284-0.284","b5a8c975-6c24-4b71-91ed-d5de37562b2f","","2281","0","breath_counting","","","40,39","2281","added!",""
"2707","40","poldrack-single-stim","289","1129016","0.0-3.285-0.285","b5a8c975-6c24-4b71-91ed-d5de37562b2f","","2707","0","breath_counting","","","40,39","2707","added!",""
"2481","40","poldrack-single-stim","290","1131503","0.0-3.286-0.286","b5a8c975-6c24-4b71-91ed-d5de37562b2f","","2481","0","breath_counting","","","40,39","2481","added!",""
"2385","40","poldrack-single-stim","291","1133895","0.0-3.287-0.287","b5a8c975-6c24-4b71-91ed-d5de37562b2f","","2385","0","breath_counting","","","40,39","2385","added!",""
"2664","40","poldrack-single-stim","292","1136567","0.0-3.288-0.288","b5a8c975-6c24-4b71-91ed-d5de37562b2f","","2664","0","breath_counting","","","40,39","2664","added!",""
"2164","40","poldrack-single-stim","293","1138735","0.0-3.289-0.289","b5a8c975-6c24-4b71-91ed-d5de37562b2f","","2164","0","breath_counting","","","40,39","2164","added!",""
"3155","39","poldrack-single-stim","294","1141896","0.0-3.290-0.290","b5a8c975-6c24-4b71-91ed-d5de37562b2f","","3155","0","breath_counting","","","40,39","3155","added!",""
"","","call-function","295","1141916","0.0-4.0","b5a8c975-6c24-4b71-91ed-d5de37562b2f","","","","","","","","","",""
"53342","13","poldrack-text","296","1195259","0.0-5.0","b5a8c975-6c24-4b71-91ed-d5de37562b2f","<div class = centerbox><p class = center-block-text>Great job and thank you! You are now finished with this part of the study.</p><p class = center-block-text>Press <strong>enter</strong> to continue.</p></div>","53342","0","end","","","","","","breath_counting_task"
"1167","13","text","297","1196428","0.0-6.0","b5a8c975-6c24-4b71-91ed-d5de37562b2f","","","","","","","","","",""
