"rt","key_press","trial_type","trial_index","time_elapsed","internal_node_id","subject","text","block_duration","timing_post_trial","trial_id","view_history","stimulus","possible_responses","stim_duration","addingOnTrial","exp_id"
"484","13","text","0","488","0.0-0.0","55f2e621-e877-4196-a98c-239ab38b30bb","","","","","","","","","",""
"808","13","poldrack-text","1","2300","0.0-1.0-0.0","55f2e621-e877-4196-a98c-239ab38b30bb","<div class = centerbox><p class = center-block-text>Welcome to the experiment. Press <strong>enter</strong> to begin.</p></div>","808","0","instruction","","","","","",""
"184639","","poldrack-instructions","2","186941","0.0-1.0-1.0","55f2e621-e877-4196-a98c-239ab38b30bb","","","","instruction","[{""page_index"":0,""viewing_time"":49791},{""page_index"":1,""viewing_time"":11629},{""page_index"":2,""viewing_time"":71210},{""page_index"":3,""viewing_time"":52008}]","","","","",""
"10023","40","poldrack-single-stim","3","197472","0.0-2.0","55f2e621-e877-4196-a98c-239ab38b30bb","","10023","0","breath_counting","","<div class=centerbox><p class = center-block-text>Place your attention on the breath.</p><p class = center-block-text>Press the down arrow after your first exhale as you count ""one"", then close your eyes and continue counting breaths and pressing the correct arrow key.</p></div>","40,39","10023","added!",""
"3851","40","poldrack-single-stim","4","201325","0.0-3.0-0.0","55f2e621-e877-4196-a98c-239ab38b30bb","","3851","0","breath_counting","","","40,39","3851","added!",""
"3858","40","poldrack-single-stim","5","205189","0.0-3.1-0.1","55f2e621-e877-4196-a98c-239ab38b30bb","","3858","0","breath_counting","","","40,39","3858","added!",""
"4423","40","poldrack-single-stim","6","209614","0.0-3.2-0.2","55f2e621-e877-4196-a98c-239ab38b30bb","","4423","0","breath_counting","","","40,39","4423","added!",""
"3611","40","poldrack-single-stim","7","213228","0.0-3.3-0.3","55f2e621-e877-4196-a98c-239ab38b30bb","","3611","0","breath_counting","","","40,39","3611","added!",""
"3070","40","poldrack-single-stim","8","216300","0.0-3.4-0.4","55f2e621-e877-4196-a98c-239ab38b30bb","","3070","0","breath_counting","","","40,39","3070","added!",""
"4040","40","poldrack-single-stim","9","220341","0.0-3.5-0.5","55f2e621-e877-4196-a98c-239ab38b30bb","","4040","0","breath_counting","","","40,39","4040","added!",""
"4004","40","poldrack-single-stim","10","224348","0.0-3.6-0.6","55f2e621-e877-4196-a98c-239ab38b30bb","","4004","0","breath_counting","","","40,39","4004","added!",""
"3334","39","poldrack-single-stim","11","227684","0.0-3.7-0.7","55f2e621-e877-4196-a98c-239ab38b30bb","","3334","0","breath_counting","","","40,39","3334","added!",""
"4089","40","poldrack-single-stim","12","231774","0.0-3.8-0.8","55f2e621-e877-4196-a98c-239ab38b30bb","","4089","0","breath_counting","","","40,39","4089","added!",""
"3299","40","poldrack-single-stim","13","235077","0.0-3.9-0.9","55f2e621-e877-4196-a98c-239ab38b30bb","","3299","0","breath_counting","","","40,39","3299","added!",""
"4125","40","poldrack-single-stim","14","239205","0.0-3.10-0.10","55f2e621-e877-4196-a98c-239ab38b30bb","","4125","0","breath_counting","","","40,39","4125","added!",""
"4438","40","poldrack-single-stim","15","243646","0.0-3.11-0.11","55f2e621-e877-4196-a98c-239ab38b30bb","","4438","0","breath_counting","","","40,39","4438","added!",""
"2988","40","poldrack-single-stim","16","246637","0.0-3.12-0.12","55f2e621-e877-4196-a98c-239ab38b30bb","","2988","0","breath_counting","","","40,39","2988","added!",""
"3708","40","poldrack-single-stim","17","250348","0.0-3.13-0.13","55f2e621-e877-4196-a98c-239ab38b30bb","","3708","0","breath_counting","","","40,39","3708","added!",""
"3745","40","poldrack-single-stim","18","254095","0.0-3.14-0.14","55f2e621-e877-4196-a98c-239ab38b30bb","","3745","0","breath_counting","","","40,39","3745","added!",""
"3628","40","poldrack-single-stim","19","257724","0.0-3.15-0.15","55f2e621-e877-4196-a98c-239ab38b30bb","","3628","0","breath_counting","","","40,39","3628","added!",""
"3082","39","poldrack-single-stim","20","260813","0.0-3.16-0.16","55f2e621-e877-4196-a98c-239ab38b30bb","","3082","0","breath_counting","","","40,39","3082","added!",""
"3991","40","poldrack-single-stim","21","264808","0.0-3.17-0.17","55f2e621-e877-4196-a98c-239ab38b30bb","","3991","0","breath_counting","","","40,39","3991","added!",""
"4459","40","poldrack-single-stim","22","269269","0.0-3.18-0.18","55f2e621-e877-4196-a98c-239ab38b30bb","","4459","0","breath_counting","","","40,39","4459","added!",""
"3781","40","poldrack-single-stim","23","273053","0.0-3.19-0.19","55f2e621-e877-4196-a98c-239ab38b30bb","","3781","0","breath_counting","","","40,39","3781","added!",""
"3919","40","poldrack-single-stim","24","276975","0.0-3.20-0.20","55f2e621-e877-4196-a98c-239ab38b30bb","","3919","0","breath_counting","","","40,39","3919","added!",""
"3305","40","poldrack-single-stim","25","280285","0.0-3.21-0.21","55f2e621-e877-4196-a98c-239ab38b30bb","","3305","0","breath_counting","","","40,39","3305","added!",""
"4757","40","poldrack-single-stim","26","285045","0.0-3.22-0.22","55f2e621-e877-4196-a98c-239ab38b30bb","","4757","0","breath_counting","","","40,39","4757","added!",""
"4006","40","poldrack-single-stim","27","289054","0.0-3.23-0.23","55f2e621-e877-4196-a98c-239ab38b30bb","","4006","0","breath_counting","","","40,39","4006","added!",""
"3772","40","poldrack-single-stim","28","292829","0.0-3.24-0.24","55f2e621-e877-4196-a98c-239ab38b30bb","","3772","0","breath_counting","","","40,39","3772","added!",""
"5126","39","poldrack-single-stim","29","297957","0.0-3.25-0.25","55f2e621-e877-4196-a98c-239ab38b30bb","","5126","0","breath_counting","","","40,39","5126","added!",""
"3575","40","poldrack-single-stim","30","301535","0.0-3.26-0.26","55f2e621-e877-4196-a98c-239ab38b30bb","","3575","0","breath_counting","","","40,39","3575","added!",""
"4067","40","poldrack-single-stim","31","305605","0.0-3.27-0.27","55f2e621-e877-4196-a98c-239ab38b30bb","","4067","0","breath_counting","","","40,39","4067","added!",""
"4133","40","poldrack-single-stim","32","309741","0.0-3.28-0.28","55f2e621-e877-4196-a98c-239ab38b30bb","","4133","0","breath_counting","","","40,39","4133","added!",""
"4257","40","poldrack-single-stim","33","313999","0.0-3.29-0.29","55f2e621-e877-4196-a98c-239ab38b30bb","","4257","0","breath_counting","","","40,39","4257","added!",""
"4740","40","poldrack-single-stim","34","318742","0.0-3.30-0.30","55f2e621-e877-4196-a98c-239ab38b30bb","","4740","0","breath_counting","","","40,39","4740","added!",""
"3677","40","poldrack-single-stim","35","322422","0.0-3.31-0.31","55f2e621-e877-4196-a98c-239ab38b30bb","","3677","0","breath_counting","","","40,39","3677","added!",""
"4214","40","poldrack-single-stim","36","326639","0.0-3.32-0.32","55f2e621-e877-4196-a98c-239ab38b30bb","","4214","0","breath_counting","","","40,39","4214","added!",""
"3932","40","poldrack-single-stim","37","330573","0.0-3.33-0.33","55f2e621-e877-4196-a98c-239ab38b30bb","","3932","0","breath_counting","","","40,39","3932","added!",""
"3389","40","poldrack-single-stim","38","333966","0.0-3.34-0.34","55f2e621-e877-4196-a98c-239ab38b30bb","","3389","0","breath_counting","","","40,39","3389","added!",""
"2886","40","poldrack-single-stim","39","336855","0.0-3.35-0.35","55f2e621-e877-4196-a98c-239ab38b30bb","","2886","0","breath_counting","","","40,39","2886","added!",""
"4132","40","poldrack-single-stim","40","340990","0.0-3.36-0.36","55f2e621-e877-4196-a98c-239ab38b30bb","","4132","0","breath_counting","","","40,39","4132","added!",""
"6054","39","poldrack-single-stim","41","347047","0.0-3.37-0.37","55f2e621-e877-4196-a98c-239ab38b30bb","","6054","0","breath_counting","","","40,39","6054","added!",""
"2938","40","poldrack-single-stim","42","349990","0.0-3.38-0.38","55f2e621-e877-4196-a98c-239ab38b30bb","","2938","0","breath_counting","","","40,39","2938","added!",""
"4437","40","poldrack-single-stim","43","354429","0.0-3.39-0.39","55f2e621-e877-4196-a98c-239ab38b30bb","","4437","0","breath_counting","","","40,39","4437","added!",""
"4376","40","poldrack-single-stim","44","358807","0.0-3.40-0.40","55f2e621-e877-4196-a98c-239ab38b30bb","","4376","0","breath_counting","","","40,39","4376","added!",""
"4418","40","poldrack-single-stim","45","363229","0.0-3.41-0.41","55f2e621-e877-4196-a98c-239ab38b30bb","","4418","0","breath_counting","","","40,39","4418","added!",""
"4286","40","poldrack-single-stim","46","367518","0.0-3.42-0.42","55f2e621-e877-4196-a98c-239ab38b30bb","","4286","0","breath_counting","","","40,39","4286","added!",""
"4774","40","poldrack-single-stim","47","372295","0.0-3.43-0.43","55f2e621-e877-4196-a98c-239ab38b30bb","","4774","0","breath_counting","","","40,39","4774","added!",""
"5081","40","poldrack-single-stim","48","377379","0.0-3.44-0.44","55f2e621-e877-4196-a98c-239ab38b30bb","","5081","0","breath_counting","","","40,39","5081","added!",""
"4290","39","poldrack-single-stim","49","381670","0.0-3.45-0.45","55f2e621-e877-4196-a98c-239ab38b30bb","","4290","0","breath_counting","","","40,39","4290","added!",""
"4174","40","poldrack-single-stim","50","385847","0.0-3.46-0.46","55f2e621-e877-4196-a98c-239ab38b30bb","","4174","0","breath_counting","","","40,39","4174","added!",""
"3813","40","poldrack-single-stim","51","389662","0.0-3.47-0.47","55f2e621-e877-4196-a98c-239ab38b30bb","","3813","0","breath_counting","","","40,39","3813","added!",""
"4165","40","poldrack-single-stim","52","393830","0.0-3.48-0.48","55f2e621-e877-4196-a98c-239ab38b30bb","","4165","0","breath_counting","","","40,39","4165","added!",""
"3935","40","poldrack-single-stim","53","397768","0.0-3.49-0.49","55f2e621-e877-4196-a98c-239ab38b30bb","","3935","0","breath_counting","","","40,39","3935","added!",""
"4476","40","poldrack-single-stim","54","402245","0.0-3.50-0.50","55f2e621-e877-4196-a98c-239ab38b30bb","","4476","0","breath_counting","","","40,39","4476","added!",""
"4310","40","poldrack-single-stim","55","406558","0.0-3.51-0.51","55f2e621-e877-4196-a98c-239ab38b30bb","","4310","0","breath_counting","","","40,39","4310","added!",""
"4805","40","poldrack-single-stim","56","411368","0.0-3.52-0.52","55f2e621-e877-4196-a98c-239ab38b30bb","","4805","0","breath_counting","","","40,39","4805","added!",""
"4754","40","poldrack-single-stim","57","416126","0.0-3.53-0.53","55f2e621-e877-4196-a98c-239ab38b30bb","","4754","0","breath_counting","","","40,39","4754","added!",""
"4262","39","poldrack-single-stim","58","420390","0.0-3.54-0.54","55f2e621-e877-4196-a98c-239ab38b30bb","","4262","0","breath_counting","","","40,39","4262","added!",""
"5326","40","poldrack-single-stim","59","425719","0.0-3.55-0.55","55f2e621-e877-4196-a98c-239ab38b30bb","","5326","0","breath_counting","","","40,39","5326","added!",""
"3053","40","poldrack-single-stim","60","428775","0.0-3.56-0.56","55f2e621-e877-4196-a98c-239ab38b30bb","","3053","0","breath_counting","","","40,39","3053","added!",""
"3861","40","poldrack-single-stim","61","432638","0.0-3.57-0.57","55f2e621-e877-4196-a98c-239ab38b30bb","","3861","0","breath_counting","","","40,39","3861","added!",""
"3101","40","poldrack-single-stim","62","435743","0.0-3.58-0.58","55f2e621-e877-4196-a98c-239ab38b30bb","","3101","0","breath_counting","","","40,39","3101","added!",""
"3341","40","poldrack-single-stim","63","439087","0.0-3.59-0.59","55f2e621-e877-4196-a98c-239ab38b30bb","","3341","0","breath_counting","","","40,39","3341","added!",""
"3485","40","poldrack-single-stim","64","442575","0.0-3.60-0.60","55f2e621-e877-4196-a98c-239ab38b30bb","","3485","0","breath_counting","","","40,39","3485","added!",""
"3677","40","poldrack-single-stim","65","446255","0.0-3.61-0.61","55f2e621-e877-4196-a98c-239ab38b30bb","","3677","0","breath_counting","","","40,39","3677","added!",""
"4677","40","poldrack-single-stim","66","450935","0.0-3.62-0.62","55f2e621-e877-4196-a98c-239ab38b30bb","","4677","0","breath_counting","","","40,39","4677","added!",""
"4013","39","poldrack-single-stim","67","454951","0.0-3.63-0.63","55f2e621-e877-4196-a98c-239ab38b30bb","","4013","0","breath_counting","","","40,39","4013","added!",""
"4438","40","poldrack-single-stim","68","459392","0.0-3.64-0.64","55f2e621-e877-4196-a98c-239ab38b30bb","","4438","0","breath_counting","","","40,39","4438","added!",""
"3523","40","poldrack-single-stim","69","462919","0.0-3.65-0.65","55f2e621-e877-4196-a98c-239ab38b30bb","","3523","0","breath_counting","","","40,39","3523","added!",""
"4870","40","poldrack-single-stim","70","467791","0.0-3.66-0.66","55f2e621-e877-4196-a98c-239ab38b30bb","","4870","0","breath_counting","","","40,39","4870","added!",""
"2358","40","poldrack-single-stim","71","470153","0.0-3.67-0.67","55f2e621-e877-4196-a98c-239ab38b30bb","","2358","0","breath_counting","","","40,39","2358","added!",""
"3386","40","poldrack-single-stim","72","473542","0.0-3.68-0.68","55f2e621-e877-4196-a98c-239ab38b30bb","","3386","0","breath_counting","","","40,39","3386","added!",""
"3142","40","poldrack-single-stim","73","476687","0.0-3.69-0.69","55f2e621-e877-4196-a98c-239ab38b30bb","","3142","0","breath_counting","","","40,39","3142","added!",""
"2532","40","poldrack-single-stim","74","479223","0.0-3.70-0.70","55f2e621-e877-4196-a98c-239ab38b30bb","","2532","0","breath_counting","","","40,39","2532","added!",""
"2903","40","poldrack-single-stim","75","482129","0.0-3.71-0.71","55f2e621-e877-4196-a98c-239ab38b30bb","","2903","0","breath_counting","","","40,39","2903","added!",""
"3385","39","poldrack-single-stim","76","485518","0.0-3.72-0.72","55f2e621-e877-4196-a98c-239ab38b30bb","","3385","0","breath_counting","","","40,39","3385","added!",""
"3382","40","poldrack-single-stim","77","488903","0.0-3.73-0.73","55f2e621-e877-4196-a98c-239ab38b30bb","","3382","0","breath_counting","","","40,39","3382","added!",""
"4541","40","poldrack-single-stim","78","493448","0.0-3.74-0.74","55f2e621-e877-4196-a98c-239ab38b30bb","","4541","0","breath_counting","","","40,39","4541","added!",""
"3057","40","poldrack-single-stim","79","496510","0.0-3.75-0.75","55f2e621-e877-4196-a98c-239ab38b30bb","","3057","0","breath_counting","","","40,39","3057","added!",""
"2926","40","poldrack-single-stim","80","499439","0.0-3.76-0.76","55f2e621-e877-4196-a98c-239ab38b30bb","","2926","0","breath_counting","","","40,39","2926","added!",""
"4647","40","poldrack-single-stim","81","504088","0.0-3.77-0.77","55f2e621-e877-4196-a98c-239ab38b30bb","","4647","0","breath_counting","","","40,39","4647","added!",""
"3339","40","poldrack-single-stim","82","507431","0.0-3.78-0.78","55f2e621-e877-4196-a98c-239ab38b30bb","","3339","0","breath_counting","","","40,39","3339","added!",""
"3075","40","poldrack-single-stim","83","510510","0.0-3.79-0.79","55f2e621-e877-4196-a98c-239ab38b30bb","","3075","0","breath_counting","","","40,39","3075","added!",""
"3664","40","poldrack-single-stim","84","514177","0.0-3.80-0.80","55f2e621-e877-4196-a98c-239ab38b30bb","","3664","0","breath_counting","","","40,39","3664","added!",""
"4210","39","poldrack-single-stim","85","518391","0.0-3.81-0.81","55f2e621-e877-4196-a98c-239ab38b30bb","","4210","0","breath_counting","","","40,39","4210","added!",""
"3652","40","poldrack-single-stim","86","522047","0.0-3.82-0.82","55f2e621-e877-4196-a98c-239ab38b30bb","","3652","0","breath_counting","","","40,39","3652","added!",""
"3958","40","poldrack-single-stim","87","526009","0.0-3.83-0.83","55f2e621-e877-4196-a98c-239ab38b30bb","","3958","0","breath_counting","","","40,39","3958","added!",""
"4011","40","poldrack-single-stim","88","530023","0.0-3.84-0.84","55f2e621-e877-4196-a98c-239ab38b30bb","","4011","0","breath_counting","","","40,39","4011","added!",""
"3084","40","poldrack-single-stim","89","533111","0.0-3.85-0.85","55f2e621-e877-4196-a98c-239ab38b30bb","","3084","0","breath_counting","","","40,39","3084","added!",""
"4781","40","poldrack-single-stim","90","537896","0.0-3.86-0.86","55f2e621-e877-4196-a98c-239ab38b30bb","","4781","0","breath_counting","","","40,39","4781","added!",""
"3468","40","poldrack-single-stim","91","541367","0.0-3.87-0.87","55f2e621-e877-4196-a98c-239ab38b30bb","","3468","0","breath_counting","","","40,39","3468","added!",""
"3829","40","poldrack-single-stim","92","545199","0.0-3.88-0.88","55f2e621-e877-4196-a98c-239ab38b30bb","","3829","0","breath_counting","","","40,39","3829","added!",""
"4134","40","poldrack-single-stim","93","549336","0.0-3.89-0.89","55f2e621-e877-4196-a98c-239ab38b30bb","","4134","0","breath_counting","","","40,39","4134","added!",""
"4891","39","poldrack-single-stim","94","554231","0.0-3.90-0.90","55f2e621-e877-4196-a98c-239ab38b30bb","","4891","0","breath_counting","","","40,39","4891","added!",""
"5054","40","poldrack-single-stim","95","559287","0.0-3.91-0.91","55f2e621-e877-4196-a98c-239ab38b30bb","","5054","0","breath_counting","","","40,39","5054","added!",""
"3814","40","poldrack-single-stim","96","563105","0.0-3.92-0.92","55f2e621-e877-4196-a98c-239ab38b30bb","","3814","0","breath_counting","","","40,39","3814","added!",""
"3187","40","poldrack-single-stim","97","566296","0.0-3.93-0.93","55f2e621-e877-4196-a98c-239ab38b30bb","","3187","0","breath_counting","","","40,39","3187","added!",""
"3988","40","poldrack-single-stim","98","570287","0.0-3.94-0.94","55f2e621-e877-4196-a98c-239ab38b30bb","","3988","0","breath_counting","","","40,39","3988","added!",""
"2932","40","poldrack-single-stim","99","573224","0.0-3.95-0.95","55f2e621-e877-4196-a98c-239ab38b30bb","","2932","0","breath_counting","","","40,39","2932","added!",""
"3523","40","poldrack-single-stim","100","576751","0.0-3.96-0.96","55f2e621-e877-4196-a98c-239ab38b30bb","","3523","0","breath_counting","","","40,39","3523","added!",""
"3254","40","poldrack-single-stim","101","580008","0.0-3.97-0.97","55f2e621-e877-4196-a98c-239ab38b30bb","","3254","0","breath_counting","","","40,39","3254","added!",""
"3501","40","poldrack-single-stim","102","583513","0.0-3.98-0.98","55f2e621-e877-4196-a98c-239ab38b30bb","","3501","0","breath_counting","","","40,39","3501","added!",""
"5491","39","poldrack-single-stim","103","589008","0.0-3.99-0.99","55f2e621-e877-4196-a98c-239ab38b30bb","","5491","0","breath_counting","","","40,39","5491","added!",""
"6343","40","poldrack-single-stim","104","595353","0.0-3.100-0.100","55f2e621-e877-4196-a98c-239ab38b30bb","","6343","0","breath_counting","","","40,39","6343","added!",""
"3443","40","poldrack-single-stim","105","598800","0.0-3.101-0.101","55f2e621-e877-4196-a98c-239ab38b30bb","","3443","0","breath_counting","","","40,39","3443","added!",""
"3147","40","poldrack-single-stim","106","601952","0.0-3.102-0.102","55f2e621-e877-4196-a98c-239ab38b30bb","","3147","0","breath_counting","","","40,39","3147","added!",""
"2884","40","poldrack-single-stim","107","604840","0.0-3.103-0.103","55f2e621-e877-4196-a98c-239ab38b30bb","","2884","0","breath_counting","","","40,39","2884","added!",""
"3326","40","poldrack-single-stim","108","608169","0.0-3.104-0.104","55f2e621-e877-4196-a98c-239ab38b30bb","","3326","0","breath_counting","","","40,39","3326","added!",""
"2242","40","poldrack-single-stim","109","610416","0.0-3.105-0.105","55f2e621-e877-4196-a98c-239ab38b30bb","","2242","0","breath_counting","","","40,39","2242","added!",""
"3211","40","poldrack-single-stim","110","613632","0.0-3.106-0.106","55f2e621-e877-4196-a98c-239ab38b30bb","","3211","0","breath_counting","","","40,39","3211","added!",""
"3652","40","poldrack-single-stim","111","617288","0.0-3.107-0.107","55f2e621-e877-4196-a98c-239ab38b30bb","","3652","0","breath_counting","","","40,39","3652","added!",""
"4965","40","poldrack-single-stim","112","622257","0.0-3.108-0.108","55f2e621-e877-4196-a98c-239ab38b30bb","","4965","0","breath_counting","","","40,39","4965","added!",""
"3276","39","poldrack-single-stim","113","625536","0.0-3.109-0.109","55f2e621-e877-4196-a98c-239ab38b30bb","","3276","0","breath_counting","","","40,39","3276","added!",""
"3115","40","poldrack-single-stim","114","628655","0.0-3.110-0.110","55f2e621-e877-4196-a98c-239ab38b30bb","","3115","0","breath_counting","","","40,39","3115","added!",""
"2814","40","poldrack-single-stim","115","631472","0.0-3.111-0.111","55f2e621-e877-4196-a98c-239ab38b30bb","","2814","0","breath_counting","","","40,39","2814","added!",""
"4245","40","poldrack-single-stim","116","635721","0.0-3.112-0.112","55f2e621-e877-4196-a98c-239ab38b30bb","","4245","0","breath_counting","","","40,39","4245","added!",""
"3892","40","poldrack-single-stim","117","639615","0.0-3.113-0.113","55f2e621-e877-4196-a98c-239ab38b30bb","","3892","0","breath_counting","","","40,39","3892","added!",""
"2705","40","poldrack-single-stim","118","642328","0.0-3.114-0.114","55f2e621-e877-4196-a98c-239ab38b30bb","","2705","0","breath_counting","","","40,39","2705","added!",""
"3315","40","poldrack-single-stim","119","645648","0.0-3.115-0.115","55f2e621-e877-4196-a98c-239ab38b30bb","","3315","0","breath_counting","","","40,39","3315","added!",""
"4288","40","poldrack-single-stim","120","649939","0.0-3.116-0.116","55f2e621-e877-4196-a98c-239ab38b30bb","","4288","0","breath_counting","","","40,39","4288","added!",""
"3632","40","poldrack-single-stim","121","653577","0.0-3.117-0.117","55f2e621-e877-4196-a98c-239ab38b30bb","","3632","0","breath_counting","","","40,39","3632","added!",""
"3613","39","poldrack-single-stim","122","657193","0.0-3.118-0.118","55f2e621-e877-4196-a98c-239ab38b30bb","","3613","0","breath_counting","","","40,39","3613","added!",""
"2981","40","poldrack-single-stim","123","660178","0.0-3.119-0.119","55f2e621-e877-4196-a98c-239ab38b30bb","","2981","0","breath_counting","","","40,39","2981","added!",""
"3458","39","poldrack-single-stim","124","663640","0.0-3.120-0.120","55f2e621-e877-4196-a98c-239ab38b30bb","","3458","0","breath_counting","","","40,39","3458","added!",""
"21","40","poldrack-single-stim","125","663664","0.0-3.121-0.121","55f2e621-e877-4196-a98c-239ab38b30bb","","21","0","breath_counting","","","40,39","21","added!",""
"2853","40","poldrack-single-stim","126","666520","0.0-3.122-0.122","55f2e621-e877-4196-a98c-239ab38b30bb","","2853","0","breath_counting","","","40,39","2853","added!",""
"3123","40","poldrack-single-stim","127","669648","0.0-3.123-0.123","55f2e621-e877-4196-a98c-239ab38b30bb","","3123","0","breath_counting","","","40,39","3123","added!",""
"3517","40","poldrack-single-stim","128","673170","0.0-3.124-0.124","55f2e621-e877-4196-a98c-239ab38b30bb","","3517","0","breath_counting","","","40,39","3517","added!",""
"2563","40","poldrack-single-stim","129","675737","0.0-3.125-0.125","55f2e621-e877-4196-a98c-239ab38b30bb","","2563","0","breath_counting","","","40,39","2563","added!",""
"3524","40","poldrack-single-stim","130","679265","0.0-3.126-0.126","55f2e621-e877-4196-a98c-239ab38b30bb","","3524","0","breath_counting","","","40,39","3524","added!",""
"3276","40","poldrack-single-stim","131","682545","0.0-3.127-0.127","55f2e621-e877-4196-a98c-239ab38b30bb","","3276","0","breath_counting","","","40,39","3276","added!",""
"3637","39","poldrack-single-stim","132","686186","0.0-3.128-0.128","55f2e621-e877-4196-a98c-239ab38b30bb","","3637","0","breath_counting","","","40,39","3637","added!",""
"4434","40","poldrack-single-stim","133","690623","0.0-3.129-0.129","55f2e621-e877-4196-a98c-239ab38b30bb","","4434","0","breath_counting","","","40,39","4434","added!",""
"3798","40","poldrack-single-stim","134","694425","0.0-3.130-0.130","55f2e621-e877-4196-a98c-239ab38b30bb","","3798","0","breath_counting","","","40,39","3798","added!",""
"4716","40","poldrack-single-stim","135","699147","0.0-3.131-0.131","55f2e621-e877-4196-a98c-239ab38b30bb","","4716","0","breath_counting","","","40,39","4716","added!",""
"4154","40","poldrack-single-stim","136","703305","0.0-3.132-0.132","55f2e621-e877-4196-a98c-239ab38b30bb","","4154","0","breath_counting","","","40,39","4154","added!",""
"4140","40","poldrack-single-stim","137","707449","0.0-3.133-0.133","55f2e621-e877-4196-a98c-239ab38b30bb","","4140","0","breath_counting","","","40,39","4140","added!",""
"4747","40","poldrack-single-stim","138","712203","0.0-3.134-0.134","55f2e621-e877-4196-a98c-239ab38b30bb","","4747","0","breath_counting","","","40,39","4747","added!",""
"4017","40","poldrack-single-stim","139","716224","0.0-3.135-0.135","55f2e621-e877-4196-a98c-239ab38b30bb","","4017","0","breath_counting","","","40,39","4017","added!",""
"4420","40","poldrack-single-stim","140","720648","0.0-3.136-0.136","55f2e621-e877-4196-a98c-239ab38b30bb","","4420","0","breath_counting","","","40,39","4420","added!",""
"3598","39","poldrack-single-stim","141","724251","0.0-3.137-0.137","55f2e621-e877-4196-a98c-239ab38b30bb","","3598","0","breath_counting","","","40,39","3598","added!",""
"5162","40","poldrack-single-stim","142","729417","0.0-3.138-0.138","55f2e621-e877-4196-a98c-239ab38b30bb","","5162","0","breath_counting","","","40,39","5162","added!",""
"3358","40","poldrack-single-stim","143","732777","0.0-3.139-0.139","55f2e621-e877-4196-a98c-239ab38b30bb","","3358","0","breath_counting","","","40,39","3358","added!",""
"4636","40","poldrack-single-stim","144","737418","0.0-3.140-0.140","55f2e621-e877-4196-a98c-239ab38b30bb","","4636","0","breath_counting","","","40,39","4636","added!",""
"2963","40","poldrack-single-stim","145","740385","0.0-3.141-0.141","55f2e621-e877-4196-a98c-239ab38b30bb","","2963","0","breath_counting","","","40,39","2963","added!",""
"2555","40","poldrack-single-stim","146","742945","0.0-3.142-0.142","55f2e621-e877-4196-a98c-239ab38b30bb","","2555","0","breath_counting","","","40,39","2555","added!",""
"4410","40","poldrack-single-stim","147","747361","0.0-3.143-0.143","55f2e621-e877-4196-a98c-239ab38b30bb","","4410","0","breath_counting","","","40,39","4410","added!",""
"4790","40","poldrack-single-stim","148","752155","0.0-3.144-0.144","55f2e621-e877-4196-a98c-239ab38b30bb","","4790","0","breath_counting","","","40,39","4790","added!",""
"4259","40","poldrack-single-stim","149","756417","0.0-3.145-0.145","55f2e621-e877-4196-a98c-239ab38b30bb","","4259","0","breath_counting","","","40,39","4259","added!",""
"3763","39","poldrack-single-stim","150","760185","0.0-3.146-0.146","55f2e621-e877-4196-a98c-239ab38b30bb","","3763","0","breath_counting","","","40,39","3763","added!",""
"4077","40","poldrack-single-stim","151","764267","0.0-3.147-0.147","55f2e621-e877-4196-a98c-239ab38b30bb","","4077","0","breath_counting","","","40,39","4077","added!",""
"3298","40","poldrack-single-stim","152","767569","0.0-3.148-0.148","55f2e621-e877-4196-a98c-239ab38b30bb","","3298","0","breath_counting","","","40,39","3298","added!",""
"4459","40","poldrack-single-stim","153","772034","0.0-3.149-0.149","55f2e621-e877-4196-a98c-239ab38b30bb","","4459","0","breath_counting","","","40,39","4459","added!",""
"4101","40","poldrack-single-stim","154","776139","0.0-3.150-0.150","55f2e621-e877-4196-a98c-239ab38b30bb","","4101","0","breath_counting","","","40,39","4101","added!",""
"4097","40","poldrack-single-stim","155","780240","0.0-3.151-0.151","55f2e621-e877-4196-a98c-239ab38b30bb","","4097","0","breath_counting","","","40,39","4097","added!",""
"3308","40","poldrack-single-stim","156","783553","0.0-3.152-0.152","55f2e621-e877-4196-a98c-239ab38b30bb","","3308","0","breath_counting","","","40,39","3308","added!",""
"2758","40","poldrack-single-stim","157","786316","0.0-3.153-0.153","55f2e621-e877-4196-a98c-239ab38b30bb","","2758","0","breath_counting","","","40,39","2758","added!",""
"2785","40","poldrack-single-stim","158","789105","0.0-3.154-0.154","55f2e621-e877-4196-a98c-239ab38b30bb","","2785","0","breath_counting","","","40,39","2785","added!",""
"4067","39","poldrack-single-stim","159","793178","0.0-3.155-0.155","55f2e621-e877-4196-a98c-239ab38b30bb","","4067","0","breath_counting","","","40,39","4067","added!",""
"3990","40","poldrack-single-stim","160","797171","0.0-3.156-0.156","55f2e621-e877-4196-a98c-239ab38b30bb","","3990","0","breath_counting","","","40,39","3990","added!",""
"3394","40","poldrack-single-stim","161","800569","0.0-3.157-0.157","55f2e621-e877-4196-a98c-239ab38b30bb","","3394","0","breath_counting","","","40,39","3394","added!",""
"3091","40","poldrack-single-stim","162","803666","0.0-3.158-0.158","55f2e621-e877-4196-a98c-239ab38b30bb","","3091","0","breath_counting","","","40,39","3091","added!",""
"4980","40","poldrack-single-stim","163","808650","0.0-3.159-0.159","55f2e621-e877-4196-a98c-239ab38b30bb","","4980","0","breath_counting","","","40,39","4980","added!",""
"3877","40","poldrack-single-stim","164","812530","0.0-3.160-0.160","55f2e621-e877-4196-a98c-239ab38b30bb","","3877","0","breath_counting","","","40,39","3877","added!",""
"3900","40","poldrack-single-stim","165","816433","0.0-3.161-0.161","55f2e621-e877-4196-a98c-239ab38b30bb","","3900","0","breath_counting","","","40,39","3900","added!",""
"3637","40","poldrack-single-stim","166","820075","0.0-3.162-0.162","55f2e621-e877-4196-a98c-239ab38b30bb","","3637","0","breath_counting","","","40,39","3637","added!",""
"3555","40","poldrack-single-stim","167","823634","0.0-3.163-0.163","55f2e621-e877-4196-a98c-239ab38b30bb","","3555","0","breath_counting","","","40,39","3555","added!",""
"3204","40","poldrack-single-stim","168","826842","0.0-3.164-0.164","55f2e621-e877-4196-a98c-239ab38b30bb","","3204","0","breath_counting","","","40,39","3204","added!",""
"1899","39","poldrack-single-stim","169","828746","0.0-3.165-0.165","55f2e621-e877-4196-a98c-239ab38b30bb","","1899","0","breath_counting","","","40,39","1899","added!",""
"3380","40","poldrack-single-stim","170","832130","0.0-3.166-0.166","55f2e621-e877-4196-a98c-239ab38b30bb","","3380","0","breath_counting","","","40,39","3380","added!",""
"4884","40","poldrack-single-stim","171","837018","0.0-3.167-0.167","55f2e621-e877-4196-a98c-239ab38b30bb","","4884","0","breath_counting","","","40,39","4884","added!",""
"3786","40","poldrack-single-stim","172","840809","0.0-3.168-0.168","55f2e621-e877-4196-a98c-239ab38b30bb","","3786","0","breath_counting","","","40,39","3786","added!",""
"3215","40","poldrack-single-stim","173","844027","0.0-3.169-0.169","55f2e621-e877-4196-a98c-239ab38b30bb","","3215","0","breath_counting","","","40,39","3215","added!",""
"3482","40","poldrack-single-stim","174","847514","0.0-3.170-0.170","55f2e621-e877-4196-a98c-239ab38b30bb","","3482","0","breath_counting","","","40,39","3482","added!",""
"4474","40","poldrack-single-stim","175","851994","0.0-3.171-0.171","55f2e621-e877-4196-a98c-239ab38b30bb","","4474","0","breath_counting","","","40,39","4474","added!",""
"3597","40","poldrack-single-stim","176","855596","0.0-3.172-0.172","55f2e621-e877-4196-a98c-239ab38b30bb","","3597","0","breath_counting","","","40,39","3597","added!",""
"2970","40","poldrack-single-stim","177","858570","0.0-3.173-0.173","55f2e621-e877-4196-a98c-239ab38b30bb","","2970","0","breath_counting","","","40,39","2970","added!",""
"4699","39","poldrack-single-stim","178","863274","0.0-3.174-0.174","55f2e621-e877-4196-a98c-239ab38b30bb","","4699","0","breath_counting","","","40,39","4699","added!",""
"3772","40","poldrack-single-stim","179","867051","0.0-3.175-0.175","55f2e621-e877-4196-a98c-239ab38b30bb","","3772","0","breath_counting","","","40,39","3772","added!",""
"3722","40","poldrack-single-stim","180","870777","0.0-3.176-0.176","55f2e621-e877-4196-a98c-239ab38b30bb","","3722","0","breath_counting","","","40,39","3722","added!",""
"3165","40","poldrack-single-stim","181","873946","0.0-3.177-0.177","55f2e621-e877-4196-a98c-239ab38b30bb","","3165","0","breath_counting","","","40,39","3165","added!",""
"3003","40","poldrack-single-stim","182","876954","0.0-3.178-0.178","55f2e621-e877-4196-a98c-239ab38b30bb","","3003","0","breath_counting","","","40,39","3003","added!",""
"4477","40","poldrack-single-stim","183","881435","0.0-3.179-0.179","55f2e621-e877-4196-a98c-239ab38b30bb","","4477","0","breath_counting","","","40,39","4477","added!",""
"2741","40","poldrack-single-stim","184","884178","0.0-3.180-0.180","55f2e621-e877-4196-a98c-239ab38b30bb","","2741","0","breath_counting","","","40,39","2741","added!",""
"3370","40","poldrack-single-stim","185","887555","0.0-3.181-0.181","55f2e621-e877-4196-a98c-239ab38b30bb","","3370","0","breath_counting","","","40,39","3370","added!",""
"4477","40","poldrack-single-stim","186","892036","0.0-3.182-0.182","55f2e621-e877-4196-a98c-239ab38b30bb","","4477","0","breath_counting","","","40,39","4477","added!",""
"2889","39","poldrack-single-stim","187","894931","0.0-3.183-0.183","55f2e621-e877-4196-a98c-239ab38b30bb","","2889","0","breath_counting","","","40,39","2889","added!",""
"5546","40","poldrack-single-stim","188","900482","0.0-3.184-0.184","55f2e621-e877-4196-a98c-239ab38b30bb","","5546","0","breath_counting","","","40,39","5546","added!",""
"3279","40","poldrack-single-stim","189","903766","0.0-3.185-0.185","55f2e621-e877-4196-a98c-239ab38b30bb","","3279","0","breath_counting","","","40,39","3279","added!",""
"3319","40","poldrack-single-stim","190","907091","0.0-3.186-0.186","55f2e621-e877-4196-a98c-239ab38b30bb","","3319","0","breath_counting","","","40,39","3319","added!",""
"2738","40","poldrack-single-stim","191","909833","0.0-3.187-0.187","55f2e621-e877-4196-a98c-239ab38b30bb","","2738","0","breath_counting","","","40,39","2738","added!",""
"3028","40","poldrack-single-stim","192","912867","0.0-3.188-0.188","55f2e621-e877-4196-a98c-239ab38b30bb","","3028","0","breath_counting","","","40,39","3028","added!",""
"2772","40","poldrack-single-stim","193","915644","0.0-3.189-0.189","55f2e621-e877-4196-a98c-239ab38b30bb","","2772","0","breath_counting","","","40,39","2772","added!",""
"3370","40","poldrack-single-stim","194","919018","0.0-3.190-0.190","55f2e621-e877-4196-a98c-239ab38b30bb","","3370","0","breath_counting","","","40,39","3370","added!",""
"2986","40","poldrack-single-stim","195","922011","0.0-3.191-0.191","55f2e621-e877-4196-a98c-239ab38b30bb","","2986","0","breath_counting","","","40,39","2986","added!",""
"2203","40","poldrack-single-stim","196","924217","0.0-3.192-0.192","55f2e621-e877-4196-a98c-239ab38b30bb","","2203","0","breath_counting","","","40,39","2203","added!",""
"2407","39","poldrack-single-stim","197","926629","0.0-3.193-0.193","55f2e621-e877-4196-a98c-239ab38b30bb","","2407","0","breath_counting","","","40,39","2407","added!",""
"2289","40","poldrack-single-stim","198","928923","0.0-3.194-0.194","55f2e621-e877-4196-a98c-239ab38b30bb","","2289","0","breath_counting","","","40,39","2289","added!",""
"2675","40","poldrack-single-stim","199","931603","0.0-3.195-0.195","55f2e621-e877-4196-a98c-239ab38b30bb","","2675","0","breath_counting","","","40,39","2675","added!",""
"3010","40","poldrack-single-stim","200","934619","0.0-3.196-0.196","55f2e621-e877-4196-a98c-239ab38b30bb","","3010","0","breath_counting","","","40,39","3010","added!",""
"4261","40","poldrack-single-stim","201","938884","0.0-3.197-0.197","55f2e621-e877-4196-a98c-239ab38b30bb","","4261","0","breath_counting","","","40,39","4261","added!",""
"3314","40","poldrack-single-stim","202","942203","0.0-3.198-0.198","55f2e621-e877-4196-a98c-239ab38b30bb","","3314","0","breath_counting","","","40,39","3314","added!",""
"2939","40","poldrack-single-stim","203","945147","0.0-3.199-0.199","55f2e621-e877-4196-a98c-239ab38b30bb","","2939","0","breath_counting","","","40,39","2939","added!",""
"2962","40","poldrack-single-stim","204","948115","0.0-3.200-0.200","55f2e621-e877-4196-a98c-239ab38b30bb","","2962","0","breath_counting","","","40,39","2962","added!",""
"2796","40","poldrack-single-stim","205","950916","0.0-3.201-0.201","55f2e621-e877-4196-a98c-239ab38b30bb","","2796","0","breath_counting","","","40,39","2796","added!",""
"3651","39","poldrack-single-stim","206","954571","0.0-3.202-0.202","55f2e621-e877-4196-a98c-239ab38b30bb","","3651","0","breath_counting","","","40,39","3651","added!",""
"4868","40","poldrack-single-stim","207","959443","0.0-3.203-0.203","55f2e621-e877-4196-a98c-239ab38b30bb","","4868","0","breath_counting","","","40,39","4868","added!",""
"3643","40","poldrack-single-stim","208","963092","0.0-3.204-0.204","55f2e621-e877-4196-a98c-239ab38b30bb","","3643","0","breath_counting","","","40,39","3643","added!",""
"2997","40","poldrack-single-stim","209","966091","0.0-3.205-0.205","55f2e621-e877-4196-a98c-239ab38b30bb","","2997","0","breath_counting","","","40,39","2997","added!",""
"3722","40","poldrack-single-stim","210","969818","0.0-3.206-0.206","55f2e621-e877-4196-a98c-239ab38b30bb","","3722","0","breath_counting","","","40,39","3722","added!",""
"3124","40","poldrack-single-stim","211","972946","0.0-3.207-0.207","55f2e621-e877-4196-a98c-239ab38b30bb","","3124","0","breath_counting","","","40,39","3124","added!",""
"3566","40","poldrack-single-stim","212","976517","0.0-3.208-0.208","55f2e621-e877-4196-a98c-239ab38b30bb","","3566","0","breath_counting","","","40,39","3566","added!",""
"3130","40","poldrack-single-stim","213","979651","0.0-3.209-0.209","55f2e621-e877-4196-a98c-239ab38b30bb","","3130","0","breath_counting","","","40,39","3130","added!",""
"274","40","poldrack-single-stim","214","979930","0.0-3.210-0.210","55f2e621-e877-4196-a98c-239ab38b30bb","","274","0","breath_counting","","","40,39","274","added!",""
"2956","40","poldrack-single-stim","215","982890","0.0-3.211-0.211","55f2e621-e877-4196-a98c-239ab38b30bb","","2956","0","breath_counting","","","40,39","2956","added!",""
"3869","39","poldrack-single-stim","216","986764","0.0-3.212-0.212","55f2e621-e877-4196-a98c-239ab38b30bb","","3869","0","breath_counting","","","40,39","3869","added!",""
"5184","40","poldrack-single-stim","217","991955","0.0-3.213-0.213","55f2e621-e877-4196-a98c-239ab38b30bb","","5184","0","breath_counting","","","40,39","5184","added!",""
"3379","40","poldrack-single-stim","218","995339","0.0-3.214-0.214","55f2e621-e877-4196-a98c-239ab38b30bb","","3379","0","breath_counting","","","40,39","3379","added!",""
"3973","40","poldrack-single-stim","219","999317","0.0-3.215-0.215","55f2e621-e877-4196-a98c-239ab38b30bb","","3973","0","breath_counting","","","40,39","3973","added!",""
"3000","40","poldrack-single-stim","220","1002322","0.0-3.216-0.216","55f2e621-e877-4196-a98c-239ab38b30bb","","3000","0","breath_counting","","","40,39","3000","added!",""
"3266","40","poldrack-single-stim","221","1005595","0.0-3.217-0.217","55f2e621-e877-4196-a98c-239ab38b30bb","","3266","0","breath_counting","","","40,39","3266","added!",""
"3649","40","poldrack-single-stim","222","1009250","0.0-3.218-0.218","55f2e621-e877-4196-a98c-239ab38b30bb","","3649","0","breath_counting","","","40,39","3649","added!",""
"3207","40","poldrack-single-stim","223","1012461","0.0-3.219-0.219","55f2e621-e877-4196-a98c-239ab38b30bb","","3207","0","breath_counting","","","40,39","3207","added!",""
"3845","40","poldrack-single-stim","224","1016308","0.0-3.220-0.220","55f2e621-e877-4196-a98c-239ab38b30bb","","3845","0","breath_counting","","","40,39","3845","added!",""
"3321","39","poldrack-single-stim","225","1019635","0.0-3.221-0.221","55f2e621-e877-4196-a98c-239ab38b30bb","","3321","0","breath_counting","","","40,39","3321","added!",""
"4828","40","poldrack-single-stim","226","1024469","0.0-3.222-0.222","55f2e621-e877-4196-a98c-239ab38b30bb","","4828","0","breath_counting","","","40,39","4828","added!",""
"2905","40","poldrack-single-stim","227","1027379","0.0-3.223-0.223","55f2e621-e877-4196-a98c-239ab38b30bb","","2905","0","breath_counting","","","40,39","2905","added!",""
"2851","40","poldrack-single-stim","228","1030235","0.0-3.224-0.224","55f2e621-e877-4196-a98c-239ab38b30bb","","2851","0","breath_counting","","","40,39","2851","added!",""
"2794","40","poldrack-single-stim","229","1033035","0.0-3.225-0.225","55f2e621-e877-4196-a98c-239ab38b30bb","","2794","0","breath_counting","","","40,39","2794","added!",""
"2421","40","poldrack-single-stim","230","1035462","0.0-3.226-0.226","55f2e621-e877-4196-a98c-239ab38b30bb","","2421","0","breath_counting","","","40,39","2421","added!",""
"3896","40","poldrack-single-stim","231","1039363","0.0-3.227-0.227","55f2e621-e877-4196-a98c-239ab38b30bb","","3896","0","breath_counting","","","40,39","3896","added!",""
"3370","40","poldrack-single-stim","232","1042740","0.0-3.228-0.228","55f2e621-e877-4196-a98c-239ab38b30bb","","3370","0","breath_counting","","","40,39","3370","added!",""
"3507","40","poldrack-single-stim","233","1046253","0.0-3.229-0.229","55f2e621-e877-4196-a98c-239ab38b30bb","","3507","0","breath_counting","","","40,39","3507","added!",""
"3337","39","poldrack-single-stim","234","1049596","0.0-3.230-0.230","55f2e621-e877-4196-a98c-239ab38b30bb","","3337","0","breath_counting","","","40,39","3337","added!",""
"2647","40","poldrack-single-stim","235","1052251","0.0-3.231-0.231","55f2e621-e877-4196-a98c-239ab38b30bb","","2647","0","breath_counting","","","40,39","2647","added!",""
"2884","40","poldrack-single-stim","236","1055139","0.0-3.232-0.232","55f2e621-e877-4196-a98c-239ab38b30bb","","2884","0","breath_counting","","","40,39","2884","added!",""
"3461","40","poldrack-single-stim","237","1058606","0.0-3.233-0.233","55f2e621-e877-4196-a98c-239ab38b30bb","","3461","0","breath_counting","","","40,39","3461","added!",""
"3297","40","poldrack-single-stim","238","1061906","0.0-3.234-0.234","55f2e621-e877-4196-a98c-239ab38b30bb","","3297","0","breath_counting","","","40,39","3297","added!",""
"2753","40","poldrack-single-stim","239","1064664","0.0-3.235-0.235","55f2e621-e877-4196-a98c-239ab38b30bb","","2753","0","breath_counting","","","40,39","2753","added!",""
"3347","40","poldrack-single-stim","240","1068012","0.0-3.236-0.236","55f2e621-e877-4196-a98c-239ab38b30bb","","3347","0","breath_counting","","","40,39","3347","added!",""
"3714","40","poldrack-single-stim","241","1071733","0.0-3.237-0.237","55f2e621-e877-4196-a98c-239ab38b30bb","","3714","0","breath_counting","","","40,39","3714","added!",""
"3033","40","poldrack-single-stim","242","1074772","0.0-3.238-0.238","55f2e621-e877-4196-a98c-239ab38b30bb","","3033","0","breath_counting","","","40,39","3033","added!",""
"4116","40","poldrack-single-stim","243","1078893","0.0-3.239-0.239","55f2e621-e877-4196-a98c-239ab38b30bb","","4116","0","breath_counting","","","40,39","4116","added!",""
"3342","39","poldrack-single-stim","244","1082237","0.0-3.240-0.240","55f2e621-e877-4196-a98c-239ab38b30bb","","3342","0","breath_counting","","","40,39","3342","added!",""
"3552","40","poldrack-single-stim","245","1085796","0.0-3.241-0.241","55f2e621-e877-4196-a98c-239ab38b30bb","","3552","0","breath_counting","","","40,39","3552","added!",""
"3898","40","poldrack-single-stim","246","1089700","0.0-3.242-0.242","55f2e621-e877-4196-a98c-239ab38b30bb","","3898","0","breath_counting","","","40,39","3898","added!",""
"3206","40","poldrack-single-stim","247","1092908","0.0-3.243-0.243","55f2e621-e877-4196-a98c-239ab38b30bb","","3206","0","breath_counting","","","40,39","3206","added!",""
"3146","40","poldrack-single-stim","248","1096060","0.0-3.244-0.244","55f2e621-e877-4196-a98c-239ab38b30bb","","3146","0","breath_counting","","","40,39","3146","added!",""
"2410","40","poldrack-single-stim","249","1098476","0.0-3.245-0.245","55f2e621-e877-4196-a98c-239ab38b30bb","","2410","0","breath_counting","","","40,39","2410","added!",""
"","","call-function","250","1098495","0.0-4.0","55f2e621-e877-4196-a98c-239ab38b30bb","","","","","","","","","",""
"9334","13","poldrack-text","251","1107831","0.0-5.0","55f2e621-e877-4196-a98c-239ab38b30bb","<div class = centerbox><p class = center-block-text>Great job and thank you! You are now finished with this part of the study.</p><p class = center-block-text>Press <strong>enter</strong> to continue.</p></div>","9334","0","end","","","","","","breath_counting_task"
"629","13","text","252","1108460","0.0-6.0","55f2e621-e877-4196-a98c-239ab38b30bb","","","","","","","","","",""
