"rt","key_press","trial_type","trial_index","time_elapsed","internal_node_id","subject","text","block_duration","timing_post_trial","trial_id","view_history","stimulus","possible_responses","stim_duration","addingOnTrial","exp_id"
"638","13","text","0","643","0.0-0.0","dc6ca50a-e9ee-4645-9e78-34b1ef9662c2","","","","","","","","","",""
"1230","13","poldrack-text","1","2877","0.0-1.0-0.0","dc6ca50a-e9ee-4645-9e78-34b1ef9662c2","<div class = centerbox><p class = center-block-text>Welcome to the experiment. Press <strong>enter</strong> to begin.</p></div>","1230","0","instruction","","","","","",""
"206943","","poldrack-instructions","2","209822","0.0-1.0-1.0","dc6ca50a-e9ee-4645-9e78-34b1ef9662c2","","","","instruction","[{""page_index"":0,""viewing_time"":53904},{""page_index"":1,""viewing_time"":13261},{""page_index"":2,""viewing_time"":93857},{""page_index"":3,""viewing_time"":45919}]","","","","",""
"17320","40","poldrack-single-stim","3","227649","0.0-2.0","dc6ca50a-e9ee-4645-9e78-34b1ef9662c2","","17320","0","breath_counting","","<div class=centerbox><p class = center-block-text>Place your attention on the breath.</p><p class = center-block-text>Press the down arrow after your first exhale as you count ""one"", then close your eyes and continue counting breaths and pressing the correct arrow key.</p></div>","40,39","17320","added!",""
"7692","40","poldrack-single-stim","4","235342","0.0-3.0-0.0","dc6ca50a-e9ee-4645-9e78-34b1ef9662c2","","7692","0","breath_counting","","","40,39","7692","added!",""
"6571","40","poldrack-single-stim","5","241919","0.0-3.1-0.1","dc6ca50a-e9ee-4645-9e78-34b1ef9662c2","","6571","0","breath_counting","","","40,39","6571","added!",""
"5558","40","poldrack-single-stim","6","247478","0.0-3.2-0.2","dc6ca50a-e9ee-4645-9e78-34b1ef9662c2","","5558","0","breath_counting","","","40,39","5558","added!",""
"6697","40","poldrack-single-stim","7","254177","0.0-3.3-0.3","dc6ca50a-e9ee-4645-9e78-34b1ef9662c2","","6697","0","breath_counting","","","40,39","6697","added!",""
"6092","40","poldrack-single-stim","8","260271","0.0-3.4-0.4","dc6ca50a-e9ee-4645-9e78-34b1ef9662c2","","6092","0","breath_counting","","","40,39","6092","added!",""
"5902","40","poldrack-single-stim","9","266174","0.0-3.5-0.5","dc6ca50a-e9ee-4645-9e78-34b1ef9662c2","","5902","0","breath_counting","","","40,39","5902","added!",""
"6405","40","poldrack-single-stim","10","272582","0.0-3.6-0.6","dc6ca50a-e9ee-4645-9e78-34b1ef9662c2","","6405","0","breath_counting","","","40,39","6405","added!",""
"4720","39","poldrack-single-stim","11","277304","0.0-3.7-0.7","dc6ca50a-e9ee-4645-9e78-34b1ef9662c2","","4720","0","breath_counting","","","40,39","4720","added!",""
"5597","40","poldrack-single-stim","12","282903","0.0-3.8-0.8","dc6ca50a-e9ee-4645-9e78-34b1ef9662c2","","5597","0","breath_counting","","","40,39","5597","added!",""
"5807","40","poldrack-single-stim","13","288713","0.0-3.9-0.9","dc6ca50a-e9ee-4645-9e78-34b1ef9662c2","","5807","0","breath_counting","","","40,39","5807","added!",""
"6371","40","poldrack-single-stim","14","295086","0.0-3.10-0.10","dc6ca50a-e9ee-4645-9e78-34b1ef9662c2","","6371","0","breath_counting","","","40,39","6371","added!",""
"6063","40","poldrack-single-stim","15","301152","0.0-3.11-0.11","dc6ca50a-e9ee-4645-9e78-34b1ef9662c2","","6063","0","breath_counting","","","40,39","6063","added!",""
"5293","40","poldrack-single-stim","16","306446","0.0-3.12-0.12","dc6ca50a-e9ee-4645-9e78-34b1ef9662c2","","5293","0","breath_counting","","","40,39","5293","added!",""
"5447","40","poldrack-single-stim","17","311896","0.0-3.13-0.13","dc6ca50a-e9ee-4645-9e78-34b1ef9662c2","","5447","0","breath_counting","","","40,39","5447","added!",""
"5414","40","poldrack-single-stim","18","317311","0.0-3.14-0.14","dc6ca50a-e9ee-4645-9e78-34b1ef9662c2","","5414","0","breath_counting","","","40,39","5414","added!",""
"4968","39","poldrack-single-stim","19","322281","0.0-3.15-0.15","dc6ca50a-e9ee-4645-9e78-34b1ef9662c2","","4968","0","breath_counting","","","40,39","4968","added!",""
"5398","40","poldrack-single-stim","20","327686","0.0-3.16-0.16","dc6ca50a-e9ee-4645-9e78-34b1ef9662c2","","5398","0","breath_counting","","","40,39","5398","added!",""
"5511","40","poldrack-single-stim","21","333200","0.0-3.17-0.17","dc6ca50a-e9ee-4645-9e78-34b1ef9662c2","","5511","0","breath_counting","","","40,39","5511","added!",""
"5085","40","poldrack-single-stim","22","338287","0.0-3.18-0.18","dc6ca50a-e9ee-4645-9e78-34b1ef9662c2","","5085","0","breath_counting","","","40,39","5085","added!",""
"4798","40","poldrack-single-stim","23","343087","0.0-3.19-0.19","dc6ca50a-e9ee-4645-9e78-34b1ef9662c2","","4798","0","breath_counting","","","40,39","4798","added!",""
"5263","40","poldrack-single-stim","24","348352","0.0-3.20-0.20","dc6ca50a-e9ee-4645-9e78-34b1ef9662c2","","5263","0","breath_counting","","","40,39","5263","added!",""
"5462","40","poldrack-single-stim","25","353816","0.0-3.21-0.21","dc6ca50a-e9ee-4645-9e78-34b1ef9662c2","","5462","0","breath_counting","","","40,39","5462","added!",""
"5928","40","poldrack-single-stim","26","359746","0.0-3.22-0.22","dc6ca50a-e9ee-4645-9e78-34b1ef9662c2","","5928","0","breath_counting","","","40,39","5928","added!",""
"5210","40","poldrack-single-stim","27","364959","0.0-3.23-0.23","dc6ca50a-e9ee-4645-9e78-34b1ef9662c2","","5210","0","breath_counting","","","40,39","5210","added!",""
"4800","39","poldrack-single-stim","28","369761","0.0-3.24-0.24","dc6ca50a-e9ee-4645-9e78-34b1ef9662c2","","4800","0","breath_counting","","","40,39","4800","added!",""
"5603","40","poldrack-single-stim","29","375367","0.0-3.25-0.25","dc6ca50a-e9ee-4645-9e78-34b1ef9662c2","","5603","0","breath_counting","","","40,39","5603","added!",""
"4728","40","poldrack-single-stim","30","380097","0.0-3.26-0.26","dc6ca50a-e9ee-4645-9e78-34b1ef9662c2","","4728","0","breath_counting","","","40,39","4728","added!",""
"5028","40","poldrack-single-stim","31","385128","0.0-3.27-0.27","dc6ca50a-e9ee-4645-9e78-34b1ef9662c2","","5028","0","breath_counting","","","40,39","5028","added!",""
"6403","40","poldrack-single-stim","32","391532","0.0-3.28-0.28","dc6ca50a-e9ee-4645-9e78-34b1ef9662c2","","6403","0","breath_counting","","","40,39","6403","added!",""
"5626","40","poldrack-single-stim","33","397160","0.0-3.29-0.29","dc6ca50a-e9ee-4645-9e78-34b1ef9662c2","","5626","0","breath_counting","","","40,39","5626","added!",""
"5912","40","poldrack-single-stim","34","403074","0.0-3.30-0.30","dc6ca50a-e9ee-4645-9e78-34b1ef9662c2","","5912","0","breath_counting","","","40,39","5912","added!",""
"6059","40","poldrack-single-stim","35","409135","0.0-3.31-0.31","dc6ca50a-e9ee-4645-9e78-34b1ef9662c2","","6059","0","breath_counting","","","40,39","6059","added!",""
"6319","40","poldrack-single-stim","36","415456","0.0-3.32-0.32","dc6ca50a-e9ee-4645-9e78-34b1ef9662c2","","6319","0","breath_counting","","","40,39","6319","added!",""
"5685","39","poldrack-single-stim","37","421143","0.0-3.33-0.33","dc6ca50a-e9ee-4645-9e78-34b1ef9662c2","","5685","0","breath_counting","","","40,39","5685","added!",""
"6976","40","poldrack-single-stim","38","428122","0.0-3.34-0.34","dc6ca50a-e9ee-4645-9e78-34b1ef9662c2","","6976","0","breath_counting","","","40,39","6976","added!",""
"3811","40","poldrack-single-stim","39","431936","0.0-3.35-0.35","dc6ca50a-e9ee-4645-9e78-34b1ef9662c2","","3811","0","breath_counting","","","40,39","3811","added!",""
"4117","40","poldrack-single-stim","40","436056","0.0-3.36-0.36","dc6ca50a-e9ee-4645-9e78-34b1ef9662c2","","4117","0","breath_counting","","","40,39","4117","added!",""
"6254","40","poldrack-single-stim","41","442313","0.0-3.37-0.37","dc6ca50a-e9ee-4645-9e78-34b1ef9662c2","","6254","0","breath_counting","","","40,39","6254","added!",""
"5377","40","poldrack-single-stim","42","447695","0.0-3.38-0.38","dc6ca50a-e9ee-4645-9e78-34b1ef9662c2","","5377","0","breath_counting","","","40,39","5377","added!",""
"5391","40","poldrack-single-stim","43","453089","0.0-3.39-0.39","dc6ca50a-e9ee-4645-9e78-34b1ef9662c2","","5391","0","breath_counting","","","40,39","5391","added!",""
"5317","40","poldrack-single-stim","44","458407","0.0-3.40-0.40","dc6ca50a-e9ee-4645-9e78-34b1ef9662c2","","5317","0","breath_counting","","","40,39","5317","added!",""
"4840","39","poldrack-single-stim","45","463250","0.0-3.41-0.41","dc6ca50a-e9ee-4645-9e78-34b1ef9662c2","","4840","0","breath_counting","","","40,39","4840","added!",""
"5363","40","poldrack-single-stim","46","468616","0.0-3.42-0.42","dc6ca50a-e9ee-4645-9e78-34b1ef9662c2","","5363","0","breath_counting","","","40,39","5363","added!",""
"5007","40","poldrack-single-stim","47","473625","0.0-3.43-0.43","dc6ca50a-e9ee-4645-9e78-34b1ef9662c2","","5007","0","breath_counting","","","40,39","5007","added!",""
"5142","40","poldrack-single-stim","48","478768","0.0-3.44-0.44","dc6ca50a-e9ee-4645-9e78-34b1ef9662c2","","5142","0","breath_counting","","","40,39","5142","added!",""
"5887","40","poldrack-single-stim","49","484657","0.0-3.45-0.45","dc6ca50a-e9ee-4645-9e78-34b1ef9662c2","","5887","0","breath_counting","","","40,39","5887","added!",""
"4948","40","poldrack-single-stim","50","489608","0.0-3.46-0.46","dc6ca50a-e9ee-4645-9e78-34b1ef9662c2","","4948","0","breath_counting","","","40,39","4948","added!",""
"5352","40","poldrack-single-stim","51","494963","0.0-3.47-0.47","dc6ca50a-e9ee-4645-9e78-34b1ef9662c2","","5352","0","breath_counting","","","40,39","5352","added!",""
"5547","40","poldrack-single-stim","52","500513","0.0-3.48-0.48","dc6ca50a-e9ee-4645-9e78-34b1ef9662c2","","5547","0","breath_counting","","","40,39","5547","added!",""
"5952","40","poldrack-single-stim","53","506467","0.0-3.49-0.49","dc6ca50a-e9ee-4645-9e78-34b1ef9662c2","","5952","0","breath_counting","","","40,39","5952","added!",""
"4834","39","poldrack-single-stim","54","511304","0.0-3.50-0.50","dc6ca50a-e9ee-4645-9e78-34b1ef9662c2","","4834","0","breath_counting","","","40,39","4834","added!",""
"5272","40","poldrack-single-stim","55","516579","0.0-3.51-0.51","dc6ca50a-e9ee-4645-9e78-34b1ef9662c2","","5272","0","breath_counting","","","40,39","5272","added!",""
"6009","40","poldrack-single-stim","56","522593","0.0-3.52-0.52","dc6ca50a-e9ee-4645-9e78-34b1ef9662c2","","6009","0","breath_counting","","","40,39","6009","added!",""
"5247","40","poldrack-single-stim","57","527843","0.0-3.53-0.53","dc6ca50a-e9ee-4645-9e78-34b1ef9662c2","","5247","0","breath_counting","","","40,39","5247","added!",""
"5283","40","poldrack-single-stim","58","533129","0.0-3.54-0.54","dc6ca50a-e9ee-4645-9e78-34b1ef9662c2","","5283","0","breath_counting","","","40,39","5283","added!",""
"6526","40","poldrack-single-stim","59","539658","0.0-3.55-0.55","dc6ca50a-e9ee-4645-9e78-34b1ef9662c2","","6526","0","breath_counting","","","40,39","6526","added!",""
"5083","40","poldrack-single-stim","60","544743","0.0-3.56-0.56","dc6ca50a-e9ee-4645-9e78-34b1ef9662c2","","5083","0","breath_counting","","","40,39","5083","added!",""
"5465","40","poldrack-single-stim","61","550211","0.0-3.57-0.57","dc6ca50a-e9ee-4645-9e78-34b1ef9662c2","","5465","0","breath_counting","","","40,39","5465","added!",""
"5779","40","poldrack-single-stim","62","555993","0.0-3.58-0.58","dc6ca50a-e9ee-4645-9e78-34b1ef9662c2","","5779","0","breath_counting","","","40,39","5779","added!",""
"5238","39","poldrack-single-stim","63","561235","0.0-3.59-0.59","dc6ca50a-e9ee-4645-9e78-34b1ef9662c2","","5238","0","breath_counting","","","40,39","5238","added!",""
"4107","40","poldrack-single-stim","64","565345","0.0-3.60-0.60","dc6ca50a-e9ee-4645-9e78-34b1ef9662c2","","4107","0","breath_counting","","","40,39","4107","added!",""
"5045","40","poldrack-single-stim","65","570393","0.0-3.61-0.61","dc6ca50a-e9ee-4645-9e78-34b1ef9662c2","","5045","0","breath_counting","","","40,39","5045","added!",""
"4983","40","poldrack-single-stim","66","575379","0.0-3.62-0.62","dc6ca50a-e9ee-4645-9e78-34b1ef9662c2","","4983","0","breath_counting","","","40,39","4983","added!",""
"5155","40","poldrack-single-stim","67","580537","0.0-3.63-0.63","dc6ca50a-e9ee-4645-9e78-34b1ef9662c2","","5155","0","breath_counting","","","40,39","5155","added!",""
"4853","40","poldrack-single-stim","68","585395","0.0-3.64-0.64","dc6ca50a-e9ee-4645-9e78-34b1ef9662c2","","4853","0","breath_counting","","","40,39","4853","added!",""
"5067","40","poldrack-single-stim","69","590465","0.0-3.65-0.65","dc6ca50a-e9ee-4645-9e78-34b1ef9662c2","","5067","0","breath_counting","","","40,39","5067","added!",""
"5175","40","poldrack-single-stim","70","595642","0.0-3.66-0.66","dc6ca50a-e9ee-4645-9e78-34b1ef9662c2","","5175","0","breath_counting","","","40,39","5175","added!",""
"4933","40","poldrack-single-stim","71","600577","0.0-3.67-0.67","dc6ca50a-e9ee-4645-9e78-34b1ef9662c2","","4933","0","breath_counting","","","40,39","4933","added!",""
"4524","39","poldrack-single-stim","72","605105","0.0-3.68-0.68","dc6ca50a-e9ee-4645-9e78-34b1ef9662c2","","4524","0","breath_counting","","","40,39","4524","added!",""
"4351","40","poldrack-single-stim","73","609460","0.0-3.69-0.69","dc6ca50a-e9ee-4645-9e78-34b1ef9662c2","","4351","0","breath_counting","","","40,39","4351","added!",""
"4554","40","poldrack-single-stim","74","614017","0.0-3.70-0.70","dc6ca50a-e9ee-4645-9e78-34b1ef9662c2","","4554","0","breath_counting","","","40,39","4554","added!",""
"5325","40","poldrack-single-stim","75","619346","0.0-3.71-0.71","dc6ca50a-e9ee-4645-9e78-34b1ef9662c2","","5325","0","breath_counting","","","40,39","5325","added!",""
"5126","40","poldrack-single-stim","76","624476","0.0-3.72-0.72","dc6ca50a-e9ee-4645-9e78-34b1ef9662c2","","5126","0","breath_counting","","","40,39","5126","added!",""
"5563","40","poldrack-single-stim","77","630042","0.0-3.73-0.73","dc6ca50a-e9ee-4645-9e78-34b1ef9662c2","","5563","0","breath_counting","","","40,39","5563","added!",""
"4373","40","poldrack-single-stim","78","634418","0.0-3.74-0.74","dc6ca50a-e9ee-4645-9e78-34b1ef9662c2","","4373","0","breath_counting","","","40,39","4373","added!",""
"4973","40","poldrack-single-stim","79","639395","0.0-3.75-0.75","dc6ca50a-e9ee-4645-9e78-34b1ef9662c2","","4973","0","breath_counting","","","40,39","4973","added!",""
"4589","40","poldrack-single-stim","80","643986","0.0-3.76-0.76","dc6ca50a-e9ee-4645-9e78-34b1ef9662c2","","4589","0","breath_counting","","","40,39","4589","added!",""
"4461","39","poldrack-single-stim","81","648450","0.0-3.77-0.77","dc6ca50a-e9ee-4645-9e78-34b1ef9662c2","","4461","0","breath_counting","","","40,39","4461","added!",""
"4910","40","poldrack-single-stim","82","653362","0.0-3.78-0.78","dc6ca50a-e9ee-4645-9e78-34b1ef9662c2","","4910","0","breath_counting","","","40,39","4910","added!",""
"4757","40","poldrack-single-stim","83","658121","0.0-3.79-0.79","dc6ca50a-e9ee-4645-9e78-34b1ef9662c2","","4757","0","breath_counting","","","40,39","4757","added!",""
"5662","40","poldrack-single-stim","84","663788","0.0-3.80-0.80","dc6ca50a-e9ee-4645-9e78-34b1ef9662c2","","5662","0","breath_counting","","","40,39","5662","added!",""
"5442","40","poldrack-single-stim","85","669234","0.0-3.81-0.81","dc6ca50a-e9ee-4645-9e78-34b1ef9662c2","","5442","0","breath_counting","","","40,39","5442","added!",""
"4838","40","poldrack-single-stim","86","674075","0.0-3.82-0.82","dc6ca50a-e9ee-4645-9e78-34b1ef9662c2","","4838","0","breath_counting","","","40,39","4838","added!",""
"4206","40","poldrack-single-stim","87","678282","0.0-3.83-0.83","dc6ca50a-e9ee-4645-9e78-34b1ef9662c2","","4206","0","breath_counting","","","40,39","4206","added!",""
"4733","40","poldrack-single-stim","88","683019","0.0-3.84-0.84","dc6ca50a-e9ee-4645-9e78-34b1ef9662c2","","4733","0","breath_counting","","","40,39","4733","added!",""
"4278","40","poldrack-single-stim","89","687300","0.0-3.85-0.85","dc6ca50a-e9ee-4645-9e78-34b1ef9662c2","","4278","0","breath_counting","","","40,39","4278","added!",""
"4787","39","poldrack-single-stim","90","692090","0.0-3.86-0.86","dc6ca50a-e9ee-4645-9e78-34b1ef9662c2","","4787","0","breath_counting","","","40,39","4787","added!",""
"5349","40","poldrack-single-stim","91","697443","0.0-3.87-0.87","dc6ca50a-e9ee-4645-9e78-34b1ef9662c2","","5349","0","breath_counting","","","40,39","5349","added!",""
"4055","40","poldrack-single-stim","92","701498","0.0-3.88-0.88","dc6ca50a-e9ee-4645-9e78-34b1ef9662c2","","4055","0","breath_counting","","","40,39","4055","added!",""
"5371","40","poldrack-single-stim","93","706873","0.0-3.89-0.89","dc6ca50a-e9ee-4645-9e78-34b1ef9662c2","","5371","0","breath_counting","","","40,39","5371","added!",""
"5441","40","poldrack-single-stim","94","712316","0.0-3.90-0.90","dc6ca50a-e9ee-4645-9e78-34b1ef9662c2","","5441","0","breath_counting","","","40,39","5441","added!",""
"4706","40","poldrack-single-stim","95","717026","0.0-3.91-0.91","dc6ca50a-e9ee-4645-9e78-34b1ef9662c2","","4706","0","breath_counting","","","40,39","4706","added!",""
"5180","40","poldrack-single-stim","96","722210","0.0-3.92-0.92","dc6ca50a-e9ee-4645-9e78-34b1ef9662c2","","5180","0","breath_counting","","","40,39","5180","added!",""
"5271","40","poldrack-single-stim","97","727484","0.0-3.93-0.93","dc6ca50a-e9ee-4645-9e78-34b1ef9662c2","","5271","0","breath_counting","","","40,39","5271","added!",""
"5610","40","poldrack-single-stim","98","733098","0.0-3.94-0.94","dc6ca50a-e9ee-4645-9e78-34b1ef9662c2","","5610","0","breath_counting","","","40,39","5610","added!",""
"3525","39","poldrack-single-stim","99","736626","0.0-3.95-0.95","dc6ca50a-e9ee-4645-9e78-34b1ef9662c2","","3525","0","breath_counting","","","40,39","3525","added!",""
"3870","40","poldrack-single-stim","100","740500","0.0-3.96-0.96","dc6ca50a-e9ee-4645-9e78-34b1ef9662c2","","3870","0","breath_counting","","","40,39","3870","added!",""
"4587","40","poldrack-single-stim","101","745091","0.0-3.97-0.97","dc6ca50a-e9ee-4645-9e78-34b1ef9662c2","","4587","0","breath_counting","","","40,39","4587","added!",""
"3988","40","poldrack-single-stim","102","749082","0.0-3.98-0.98","dc6ca50a-e9ee-4645-9e78-34b1ef9662c2","","3988","0","breath_counting","","","40,39","3988","added!",""
"4094","40","poldrack-single-stim","103","753180","0.0-3.99-0.99","dc6ca50a-e9ee-4645-9e78-34b1ef9662c2","","4094","0","breath_counting","","","40,39","4094","added!",""
"4604","40","poldrack-single-stim","104","757786","0.0-3.100-0.100","dc6ca50a-e9ee-4645-9e78-34b1ef9662c2","","4604","0","breath_counting","","","40,39","4604","added!",""
"4788","40","poldrack-single-stim","105","762578","0.0-3.101-0.101","dc6ca50a-e9ee-4645-9e78-34b1ef9662c2","","4788","0","breath_counting","","","40,39","4788","added!",""
"5133","40","poldrack-single-stim","106","767716","0.0-3.102-0.102","dc6ca50a-e9ee-4645-9e78-34b1ef9662c2","","5133","0","breath_counting","","","40,39","5133","added!",""
"5517","40","poldrack-single-stim","107","773235","0.0-3.103-0.103","dc6ca50a-e9ee-4645-9e78-34b1ef9662c2","","5517","0","breath_counting","","","40,39","5517","added!",""
"5085","39","poldrack-single-stim","108","778323","0.0-3.104-0.104","dc6ca50a-e9ee-4645-9e78-34b1ef9662c2","","5085","0","breath_counting","","","40,39","5085","added!",""
"3766","40","poldrack-single-stim","109","782090","0.0-3.105-0.105","dc6ca50a-e9ee-4645-9e78-34b1ef9662c2","","3766","0","breath_counting","","","40,39","3766","added!",""
"4612","40","poldrack-single-stim","110","786706","0.0-3.106-0.106","dc6ca50a-e9ee-4645-9e78-34b1ef9662c2","","4612","0","breath_counting","","","40,39","4612","added!",""
"6088","40","poldrack-single-stim","111","792796","0.0-3.107-0.107","dc6ca50a-e9ee-4645-9e78-34b1ef9662c2","","6088","0","breath_counting","","","40,39","6088","added!",""
"6043","40","poldrack-single-stim","112","798843","0.0-3.108-0.108","dc6ca50a-e9ee-4645-9e78-34b1ef9662c2","","6043","0","breath_counting","","","40,39","6043","added!",""
"5758","40","poldrack-single-stim","113","804605","0.0-3.109-0.109","dc6ca50a-e9ee-4645-9e78-34b1ef9662c2","","5758","0","breath_counting","","","40,39","5758","added!",""
"5256","40","poldrack-single-stim","114","809866","0.0-3.110-0.110","dc6ca50a-e9ee-4645-9e78-34b1ef9662c2","","5256","0","breath_counting","","","40,39","5256","added!",""
"5286","40","poldrack-single-stim","115","815156","0.0-3.111-0.111","dc6ca50a-e9ee-4645-9e78-34b1ef9662c2","","5286","0","breath_counting","","","40,39","5286","added!",""
"5476","40","poldrack-single-stim","116","820635","0.0-3.112-0.112","dc6ca50a-e9ee-4645-9e78-34b1ef9662c2","","5476","0","breath_counting","","","40,39","5476","added!",""
"5110","39","poldrack-single-stim","117","825749","0.0-3.113-0.113","dc6ca50a-e9ee-4645-9e78-34b1ef9662c2","","5110","0","breath_counting","","","40,39","5110","added!",""
"5576","40","poldrack-single-stim","118","831331","0.0-3.114-0.114","dc6ca50a-e9ee-4645-9e78-34b1ef9662c2","","5576","0","breath_counting","","","40,39","5576","added!",""
"5127","40","poldrack-single-stim","119","836471","0.0-3.115-0.115","dc6ca50a-e9ee-4645-9e78-34b1ef9662c2","","5127","0","breath_counting","","","40,39","5127","added!",""
"5281","40","poldrack-single-stim","120","841755","0.0-3.116-0.116","dc6ca50a-e9ee-4645-9e78-34b1ef9662c2","","5281","0","breath_counting","","","40,39","5281","added!",""
"5572","40","poldrack-single-stim","121","847332","0.0-3.117-0.117","dc6ca50a-e9ee-4645-9e78-34b1ef9662c2","","5572","0","breath_counting","","","40,39","5572","added!",""
"4909","40","poldrack-single-stim","122","852243","0.0-3.118-0.118","dc6ca50a-e9ee-4645-9e78-34b1ef9662c2","","4909","0","breath_counting","","","40,39","4909","added!",""
"4836","40","poldrack-single-stim","123","857082","0.0-3.119-0.119","dc6ca50a-e9ee-4645-9e78-34b1ef9662c2","","4836","0","breath_counting","","","40,39","4836","added!",""
"5415","40","poldrack-single-stim","124","862500","0.0-3.120-0.120","dc6ca50a-e9ee-4645-9e78-34b1ef9662c2","","5415","0","breath_counting","","","40,39","5415","added!",""
"5805","40","poldrack-single-stim","125","868307","0.0-3.121-0.121","dc6ca50a-e9ee-4645-9e78-34b1ef9662c2","","5805","0","breath_counting","","","40,39","5805","added!",""
"4952","39","poldrack-single-stim","126","873262","0.0-3.122-0.122","dc6ca50a-e9ee-4645-9e78-34b1ef9662c2","","4952","0","breath_counting","","","40,39","4952","added!",""
"5090","40","poldrack-single-stim","127","878355","0.0-3.123-0.123","dc6ca50a-e9ee-4645-9e78-34b1ef9662c2","","5090","0","breath_counting","","","40,39","5090","added!",""
"5820","40","poldrack-single-stim","128","884181","0.0-3.124-0.124","dc6ca50a-e9ee-4645-9e78-34b1ef9662c2","","5820","0","breath_counting","","","40,39","5820","added!",""
"6171","40","poldrack-single-stim","129","890356","0.0-3.125-0.125","dc6ca50a-e9ee-4645-9e78-34b1ef9662c2","","6171","0","breath_counting","","","40,39","6171","added!",""
"5766","40","poldrack-single-stim","130","896125","0.0-3.126-0.126","dc6ca50a-e9ee-4645-9e78-34b1ef9662c2","","5766","0","breath_counting","","","40,39","5766","added!",""
"5963","40","poldrack-single-stim","131","902092","0.0-3.127-0.127","dc6ca50a-e9ee-4645-9e78-34b1ef9662c2","","5963","0","breath_counting","","","40,39","5963","added!",""
"5519","40","poldrack-single-stim","132","907614","0.0-3.128-0.128","dc6ca50a-e9ee-4645-9e78-34b1ef9662c2","","5519","0","breath_counting","","","40,39","5519","added!",""
"5673","40","poldrack-single-stim","133","913292","0.0-3.129-0.129","dc6ca50a-e9ee-4645-9e78-34b1ef9662c2","","5673","0","breath_counting","","","40,39","5673","added!",""
"6205","40","poldrack-single-stim","134","919502","0.0-3.130-0.130","dc6ca50a-e9ee-4645-9e78-34b1ef9662c2","","6205","0","breath_counting","","","40,39","6205","added!",""
"5512","39","poldrack-single-stim","135","925020","0.0-3.131-0.131","dc6ca50a-e9ee-4645-9e78-34b1ef9662c2","","5512","0","breath_counting","","","40,39","5512","added!",""
"4606","40","poldrack-single-stim","136","929629","0.0-3.132-0.132","dc6ca50a-e9ee-4645-9e78-34b1ef9662c2","","4606","0","breath_counting","","","40,39","4606","added!",""
"4876","40","poldrack-single-stim","137","934508","0.0-3.133-0.133","dc6ca50a-e9ee-4645-9e78-34b1ef9662c2","","4876","0","breath_counting","","","40,39","4876","added!",""
"5333","40","poldrack-single-stim","138","939846","0.0-3.134-0.134","dc6ca50a-e9ee-4645-9e78-34b1ef9662c2","","5333","0","breath_counting","","","40,39","5333","added!",""
"6402","40","poldrack-single-stim","139","946253","0.0-3.135-0.135","dc6ca50a-e9ee-4645-9e78-34b1ef9662c2","","6402","0","breath_counting","","","40,39","6402","added!",""
"5877","40","poldrack-single-stim","140","952134","0.0-3.136-0.136","dc6ca50a-e9ee-4645-9e78-34b1ef9662c2","","5877","0","breath_counting","","","40,39","5877","added!",""
"4944","40","poldrack-single-stim","141","957083","0.0-3.137-0.137","dc6ca50a-e9ee-4645-9e78-34b1ef9662c2","","4944","0","breath_counting","","","40,39","4944","added!",""
"5745","40","poldrack-single-stim","142","962831","0.0-3.138-0.138","dc6ca50a-e9ee-4645-9e78-34b1ef9662c2","","5745","0","breath_counting","","","40,39","5745","added!",""
"5937","39","poldrack-single-stim","143","968772","0.0-3.139-0.139","dc6ca50a-e9ee-4645-9e78-34b1ef9662c2","","5937","0","breath_counting","","","40,39","5937","added!",""
"4774","40","poldrack-single-stim","144","973551","0.0-3.140-0.140","dc6ca50a-e9ee-4645-9e78-34b1ef9662c2","","4774","0","breath_counting","","","40,39","4774","added!",""
"5306","40","poldrack-single-stim","145","978860","0.0-3.141-0.141","dc6ca50a-e9ee-4645-9e78-34b1ef9662c2","","5306","0","breath_counting","","","40,39","5306","added!",""
"5582","40","poldrack-single-stim","146","984445","0.0-3.142-0.142","dc6ca50a-e9ee-4645-9e78-34b1ef9662c2","","5582","0","breath_counting","","","40,39","5582","added!",""
"4782","40","poldrack-single-stim","147","989229","0.0-3.143-0.143","dc6ca50a-e9ee-4645-9e78-34b1ef9662c2","","4782","0","breath_counting","","","40,39","4782","added!",""
"6030","40","poldrack-single-stim","148","995263","0.0-3.144-0.144","dc6ca50a-e9ee-4645-9e78-34b1ef9662c2","","6030","0","breath_counting","","","40,39","6030","added!",""
"5278","40","poldrack-single-stim","149","1000545","0.0-3.145-0.145","dc6ca50a-e9ee-4645-9e78-34b1ef9662c2","","5278","0","breath_counting","","","40,39","5278","added!",""
"5748","40","poldrack-single-stim","150","1006295","0.0-3.146-0.146","dc6ca50a-e9ee-4645-9e78-34b1ef9662c2","","5748","0","breath_counting","","","40,39","5748","added!",""
"5065","40","poldrack-single-stim","151","1011365","0.0-3.147-0.147","dc6ca50a-e9ee-4645-9e78-34b1ef9662c2","","5065","0","breath_counting","","","40,39","5065","added!",""
"5876","39","poldrack-single-stim","152","1017246","0.0-3.148-0.148","dc6ca50a-e9ee-4645-9e78-34b1ef9662c2","","5876","0","breath_counting","","","40,39","5876","added!",""
"4796","40","poldrack-single-stim","153","1022045","0.0-3.149-0.149","dc6ca50a-e9ee-4645-9e78-34b1ef9662c2","","4796","0","breath_counting","","","40,39","4796","added!",""
"5861","40","poldrack-single-stim","154","1027911","0.0-3.150-0.150","dc6ca50a-e9ee-4645-9e78-34b1ef9662c2","","5861","0","breath_counting","","","40,39","5861","added!",""
"5625","40","poldrack-single-stim","155","1033540","0.0-3.151-0.151","dc6ca50a-e9ee-4645-9e78-34b1ef9662c2","","5625","0","breath_counting","","","40,39","5625","added!",""
"6415","40","poldrack-single-stim","156","1039959","0.0-3.152-0.152","dc6ca50a-e9ee-4645-9e78-34b1ef9662c2","","6415","0","breath_counting","","","40,39","6415","added!",""
"5218","40","poldrack-single-stim","157","1045181","0.0-3.153-0.153","dc6ca50a-e9ee-4645-9e78-34b1ef9662c2","","5218","0","breath_counting","","","40,39","5218","added!",""
"6533","40","poldrack-single-stim","158","1051718","0.0-3.154-0.154","dc6ca50a-e9ee-4645-9e78-34b1ef9662c2","","6533","0","breath_counting","","","40,39","6533","added!",""
"6025","40","poldrack-single-stim","159","1057749","0.0-3.155-0.155","dc6ca50a-e9ee-4645-9e78-34b1ef9662c2","","6025","0","breath_counting","","","40,39","6025","added!",""
"5143","39","poldrack-single-stim","160","1062896","0.0-3.156-0.156","dc6ca50a-e9ee-4645-9e78-34b1ef9662c2","","5143","0","breath_counting","","","40,39","5143","added!",""
"5288","40","poldrack-single-stim","161","1068189","0.0-3.157-0.157","dc6ca50a-e9ee-4645-9e78-34b1ef9662c2","","5288","0","breath_counting","","","40,39","5288","added!",""
"5646","40","poldrack-single-stim","162","1073839","0.0-3.158-0.158","dc6ca50a-e9ee-4645-9e78-34b1ef9662c2","","5646","0","breath_counting","","","40,39","5646","added!",""
"5067","40","poldrack-single-stim","163","1078909","0.0-3.159-0.159","dc6ca50a-e9ee-4645-9e78-34b1ef9662c2","","5067","0","breath_counting","","","40,39","5067","added!",""
"4410","40","poldrack-single-stim","164","1083326","0.0-3.160-0.160","dc6ca50a-e9ee-4645-9e78-34b1ef9662c2","","4410","0","breath_counting","","","40,39","4410","added!",""
"4917","40","poldrack-single-stim","165","1088247","0.0-3.161-0.161","dc6ca50a-e9ee-4645-9e78-34b1ef9662c2","","4917","0","breath_counting","","","40,39","4917","added!",""
"5867","40","poldrack-single-stim","166","1094118","0.0-3.162-0.162","dc6ca50a-e9ee-4645-9e78-34b1ef9662c2","","5867","0","breath_counting","","","40,39","5867","added!",""
"5484","40","poldrack-single-stim","167","1099609","0.0-3.163-0.163","dc6ca50a-e9ee-4645-9e78-34b1ef9662c2","","5484","0","breath_counting","","","40,39","5484","added!",""
"6192","40","poldrack-single-stim","168","1105806","0.0-3.164-0.164","dc6ca50a-e9ee-4645-9e78-34b1ef9662c2","","6192","0","breath_counting","","","40,39","6192","added!",""
"5245","39","poldrack-single-stim","169","1111056","0.0-3.165-0.165","dc6ca50a-e9ee-4645-9e78-34b1ef9662c2","","5245","0","breath_counting","","","40,39","5245","added!",""
"6521","40","poldrack-single-stim","170","1117581","0.0-3.166-0.166","dc6ca50a-e9ee-4645-9e78-34b1ef9662c2","","6521","0","breath_counting","","","40,39","6521","added!",""
"5782","40","poldrack-single-stim","171","1123368","0.0-3.167-0.167","dc6ca50a-e9ee-4645-9e78-34b1ef9662c2","","5782","0","breath_counting","","","40,39","5782","added!",""
"9090","40","poldrack-single-stim","172","1132462","0.0-3.168-0.168","dc6ca50a-e9ee-4645-9e78-34b1ef9662c2","","9090","0","breath_counting","","","40,39","9090","added!",""
"","","call-function","173","1132469","0.0-4.0","dc6ca50a-e9ee-4645-9e78-34b1ef9662c2","","","","","","","","","",""
"8067","13","poldrack-text","174","1140537","0.0-5.0","dc6ca50a-e9ee-4645-9e78-34b1ef9662c2","<div class = centerbox><p class = center-block-text>Great job and thank you! You are now finished with this part of the study.</p><p class = center-block-text>Press <strong>enter</strong> to continue.</p></div>","8067","0","end","","","","","","breath_counting_task"
"730","13","text","175","1141270","0.0-6.0","dc6ca50a-e9ee-4645-9e78-34b1ef9662c2","","","","","","","","","",""
