"rt","key_press","trial_type","trial_index","time_elapsed","internal_node_id","subject","text","block_duration","timing_post_trial","trial_id","view_history","stimulus","possible_responses","stim_duration","addingOnTrial","exp_id"
"376","13","text","0","380","0.0-0.0","7f10f485-b99a-41aa-8512-f2769414239d","","","","","","","","","",""
"1247","13","poldrack-text","1","2631","0.0-1.0-0.0","7f10f485-b99a-41aa-8512-f2769414239d","<div class = centerbox><p class = center-block-text>Welcome to the experiment. Press <strong>enter</strong> to begin.</p></div>","1247","0","instruction","","","","","",""
"173289","","poldrack-instructions","2","175921","0.0-1.0-1.0","7f10f485-b99a-41aa-8512-f2769414239d","","","","instruction","[{""page_index"":0,""viewing_time"":53969},{""page_index"":1,""viewing_time"":9661},{""page_index"":2,""viewing_time"":54905},{""page_index"":3,""viewing_time"":54752}]","","","","",""
"4951","40","poldrack-single-stim","3","181378","0.0-2.0","7f10f485-b99a-41aa-8512-f2769414239d","","4951","0","breath_counting","","<div class=centerbox><p class = center-block-text>Place your attention on the breath.</p><p class = center-block-text>Press the down arrow after your first exhale as you count ""one"", then close your eyes and continue counting breaths and pressing the correct arrow key.</p></div>","40,39","4951","added!",""
"3786","40","poldrack-single-stim","4","185167","0.0-3.0-0.0","7f10f485-b99a-41aa-8512-f2769414239d","","3786","0","breath_counting","","","40,39","3786","added!",""
"3359","40","poldrack-single-stim","5","188530","0.0-3.1-0.1","7f10f485-b99a-41aa-8512-f2769414239d","","3359","0","breath_counting","","","40,39","3359","added!",""
"3051","40","poldrack-single-stim","6","191584","0.0-3.2-0.2","7f10f485-b99a-41aa-8512-f2769414239d","","3051","0","breath_counting","","","40,39","3051","added!",""
"3022","40","poldrack-single-stim","7","194608","0.0-3.3-0.3","7f10f485-b99a-41aa-8512-f2769414239d","","3022","0","breath_counting","","","40,39","3022","added!",""
"3207","40","poldrack-single-stim","8","197817","0.0-3.4-0.4","7f10f485-b99a-41aa-8512-f2769414239d","","3207","0","breath_counting","","","40,39","3207","added!",""
"3872","40","poldrack-single-stim","9","201691","0.0-3.5-0.5","7f10f485-b99a-41aa-8512-f2769414239d","","3872","0","breath_counting","","","40,39","3872","added!",""
"3523","40","poldrack-single-stim","10","205215","0.0-3.6-0.6","7f10f485-b99a-41aa-8512-f2769414239d","","3523","0","breath_counting","","","40,39","3523","added!",""
"3440","40","poldrack-single-stim","11","208657","0.0-3.7-0.7","7f10f485-b99a-41aa-8512-f2769414239d","","3440","0","breath_counting","","","40,39","3440","added!",""
"2693","39","poldrack-single-stim","12","211353","0.0-3.8-0.8","7f10f485-b99a-41aa-8512-f2769414239d","","2693","0","breath_counting","","","40,39","2693","added!",""
"7184","40","poldrack-single-stim","13","218539","0.0-3.9-0.9","7f10f485-b99a-41aa-8512-f2769414239d","","7184","0","breath_counting","","","40,39","7184","added!",""
"2467","40","poldrack-single-stim","14","221009","0.0-3.10-0.10","7f10f485-b99a-41aa-8512-f2769414239d","","2467","0","breath_counting","","","40,39","2467","added!",""
"2581","40","poldrack-single-stim","15","223593","0.0-3.11-0.11","7f10f485-b99a-41aa-8512-f2769414239d","","2581","0","breath_counting","","","40,39","2581","added!",""
"3949","40","poldrack-single-stim","16","227545","0.0-3.12-0.12","7f10f485-b99a-41aa-8512-f2769414239d","","3949","0","breath_counting","","","40,39","3949","added!",""
"3951","40","poldrack-single-stim","17","231499","0.0-3.13-0.13","7f10f485-b99a-41aa-8512-f2769414239d","","3951","0","breath_counting","","","40,39","3951","added!",""
"3690","40","poldrack-single-stim","18","235191","0.0-3.14-0.14","7f10f485-b99a-41aa-8512-f2769414239d","","3690","0","breath_counting","","","40,39","3690","added!",""
"4358","40","poldrack-single-stim","19","239553","0.0-3.15-0.15","7f10f485-b99a-41aa-8512-f2769414239d","","4358","0","breath_counting","","","40,39","4358","added!",""
"3893","40","poldrack-single-stim","20","243451","0.0-3.16-0.16","7f10f485-b99a-41aa-8512-f2769414239d","","3893","0","breath_counting","","","40,39","3893","added!",""
"3754","39","poldrack-single-stim","21","247208","0.0-3.17-0.17","7f10f485-b99a-41aa-8512-f2769414239d","","3754","0","breath_counting","","","40,39","3754","added!",""
"70","40","poldrack-single-stim","22","247281","0.0-3.18-0.18","7f10f485-b99a-41aa-8512-f2769414239d","","70","0","breath_counting","","","40,39","70","added!",""
"4094","40","poldrack-single-stim","23","251377","0.0-3.19-0.19","7f10f485-b99a-41aa-8512-f2769414239d","","4094","0","breath_counting","","","40,39","4094","added!",""
"3559","40","poldrack-single-stim","24","254939","0.0-3.20-0.20","7f10f485-b99a-41aa-8512-f2769414239d","","3559","0","breath_counting","","","40,39","3559","added!",""
"3818","40","poldrack-single-stim","25","258761","0.0-3.21-0.21","7f10f485-b99a-41aa-8512-f2769414239d","","3818","0","breath_counting","","","40,39","3818","added!",""
"3102","40","poldrack-single-stim","26","261865","0.0-3.22-0.22","7f10f485-b99a-41aa-8512-f2769414239d","","3102","0","breath_counting","","","40,39","3102","added!",""
"3593","40","poldrack-single-stim","27","265460","0.0-3.23-0.23","7f10f485-b99a-41aa-8512-f2769414239d","","3593","0","breath_counting","","","40,39","3593","added!",""
"3283","40","poldrack-single-stim","28","268745","0.0-3.24-0.24","7f10f485-b99a-41aa-8512-f2769414239d","","3283","0","breath_counting","","","40,39","3283","added!",""
"3492","40","poldrack-single-stim","29","272240","0.0-3.25-0.25","7f10f485-b99a-41aa-8512-f2769414239d","","3492","0","breath_counting","","","40,39","3492","added!",""
"3183","40","poldrack-single-stim","30","275425","0.0-3.26-0.26","7f10f485-b99a-41aa-8512-f2769414239d","","3183","0","breath_counting","","","40,39","3183","added!",""
"3016","39","poldrack-single-stim","31","278443","0.0-3.27-0.27","7f10f485-b99a-41aa-8512-f2769414239d","","3016","0","breath_counting","","","40,39","3016","added!",""
"2979","40","poldrack-single-stim","32","281425","0.0-3.28-0.28","7f10f485-b99a-41aa-8512-f2769414239d","","2979","0","breath_counting","","","40,39","2979","added!",""
"2805","40","poldrack-single-stim","33","284232","0.0-3.29-0.29","7f10f485-b99a-41aa-8512-f2769414239d","","2805","0","breath_counting","","","40,39","2805","added!",""
"3070","40","poldrack-single-stim","34","287305","0.0-3.30-0.30","7f10f485-b99a-41aa-8512-f2769414239d","","3070","0","breath_counting","","","40,39","3070","added!",""
"3079","40","poldrack-single-stim","35","290387","0.0-3.31-0.31","7f10f485-b99a-41aa-8512-f2769414239d","","3079","0","breath_counting","","","40,39","3079","added!",""
"2740","40","poldrack-single-stim","36","293130","0.0-3.32-0.32","7f10f485-b99a-41aa-8512-f2769414239d","","2740","0","breath_counting","","","40,39","2740","added!",""
"3342","40","poldrack-single-stim","37","296474","0.0-3.33-0.33","7f10f485-b99a-41aa-8512-f2769414239d","","3342","0","breath_counting","","","40,39","3342","added!",""
"3525","40","poldrack-single-stim","38","300001","0.0-3.34-0.34","7f10f485-b99a-41aa-8512-f2769414239d","","3525","0","breath_counting","","","40,39","3525","added!",""
"2984","40","poldrack-single-stim","39","302987","0.0-3.35-0.35","7f10f485-b99a-41aa-8512-f2769414239d","","2984","0","breath_counting","","","40,39","2984","added!",""
"2541","40","poldrack-single-stim","40","305529","0.0-3.36-0.36","7f10f485-b99a-41aa-8512-f2769414239d","","2541","0","breath_counting","","","40,39","2541","added!",""
"3206","40","poldrack-single-stim","41","308737","0.0-3.37-0.37","7f10f485-b99a-41aa-8512-f2769414239d","","3206","0","breath_counting","","","40,39","3206","added!",""
"3980","40","poldrack-single-stim","42","312722","0.0-3.38-0.38","7f10f485-b99a-41aa-8512-f2769414239d","","3980","0","breath_counting","","","40,39","3980","added!",""
"1877","39","poldrack-single-stim","43","314602","0.0-3.39-0.39","7f10f485-b99a-41aa-8512-f2769414239d","","1877","0","breath_counting","","","40,39","1877","added!",""
"3398","40","poldrack-single-stim","44","318002","0.0-3.40-0.40","7f10f485-b99a-41aa-8512-f2769414239d","","3398","0","breath_counting","","","40,39","3398","added!",""
"4677","40","poldrack-single-stim","45","322681","0.0-3.41-0.41","7f10f485-b99a-41aa-8512-f2769414239d","","4677","0","breath_counting","","","40,39","4677","added!",""
"3421","40","poldrack-single-stim","46","326104","0.0-3.42-0.42","7f10f485-b99a-41aa-8512-f2769414239d","","3421","0","breath_counting","","","40,39","3421","added!",""
"4222","40","poldrack-single-stim","47","330329","0.0-3.43-0.43","7f10f485-b99a-41aa-8512-f2769414239d","","4222","0","breath_counting","","","40,39","4222","added!",""
"3519","40","poldrack-single-stim","48","333850","0.0-3.44-0.44","7f10f485-b99a-41aa-8512-f2769414239d","","3519","0","breath_counting","","","40,39","3519","added!",""
"3518","40","poldrack-single-stim","49","337371","0.0-3.45-0.45","7f10f485-b99a-41aa-8512-f2769414239d","","3518","0","breath_counting","","","40,39","3518","added!",""
"3356","40","poldrack-single-stim","50","340730","0.0-3.46-0.46","7f10f485-b99a-41aa-8512-f2769414239d","","3356","0","breath_counting","","","40,39","3356","added!",""
"2829","40","poldrack-single-stim","51","343562","0.0-3.47-0.47","7f10f485-b99a-41aa-8512-f2769414239d","","2829","0","breath_counting","","","40,39","2829","added!",""
"2389","39","poldrack-single-stim","52","345954","0.0-3.48-0.48","7f10f485-b99a-41aa-8512-f2769414239d","","2389","0","breath_counting","","","40,39","2389","added!",""
"3356","40","poldrack-single-stim","53","349314","0.0-3.49-0.49","7f10f485-b99a-41aa-8512-f2769414239d","","3356","0","breath_counting","","","40,39","3356","added!",""
"2958","40","poldrack-single-stim","54","352274","0.0-3.50-0.50","7f10f485-b99a-41aa-8512-f2769414239d","","2958","0","breath_counting","","","40,39","2958","added!",""
"2861","40","poldrack-single-stim","55","355138","0.0-3.51-0.51","7f10f485-b99a-41aa-8512-f2769414239d","","2861","0","breath_counting","","","40,39","2861","added!",""
"2979","40","poldrack-single-stim","56","358122","0.0-3.52-0.52","7f10f485-b99a-41aa-8512-f2769414239d","","2979","0","breath_counting","","","40,39","2979","added!",""
"3262","40","poldrack-single-stim","57","361387","0.0-3.53-0.53","7f10f485-b99a-41aa-8512-f2769414239d","","3262","0","breath_counting","","","40,39","3262","added!",""
"3051","40","poldrack-single-stim","58","364442","0.0-3.54-0.54","7f10f485-b99a-41aa-8512-f2769414239d","","3051","0","breath_counting","","","40,39","3051","added!",""
"2738","40","poldrack-single-stim","59","367182","0.0-3.55-0.55","7f10f485-b99a-41aa-8512-f2769414239d","","2738","0","breath_counting","","","40,39","2738","added!",""
"2577","40","poldrack-single-stim","60","369761","0.0-3.56-0.56","7f10f485-b99a-41aa-8512-f2769414239d","","2577","0","breath_counting","","","40,39","2577","added!",""
"3624","39","poldrack-single-stim","61","373387","0.0-3.57-0.57","7f10f485-b99a-41aa-8512-f2769414239d","","3624","0","breath_counting","","","40,39","3624","added!",""
"2652","40","poldrack-single-stim","62","376042","0.0-3.58-0.58","7f10f485-b99a-41aa-8512-f2769414239d","","2652","0","breath_counting","","","40,39","2652","added!",""
"3006","40","poldrack-single-stim","63","379050","0.0-3.59-0.59","7f10f485-b99a-41aa-8512-f2769414239d","","3006","0","breath_counting","","","40,39","3006","added!",""
"3476","40","poldrack-single-stim","64","382530","0.0-3.60-0.60","7f10f485-b99a-41aa-8512-f2769414239d","","3476","0","breath_counting","","","40,39","3476","added!",""
"3160","40","poldrack-single-stim","65","385693","0.0-3.61-0.61","7f10f485-b99a-41aa-8512-f2769414239d","","3160","0","breath_counting","","","40,39","3160","added!",""
"3593","40","poldrack-single-stim","66","389290","0.0-3.62-0.62","7f10f485-b99a-41aa-8512-f2769414239d","","3593","0","breath_counting","","","40,39","3593","added!",""
"3412","40","poldrack-single-stim","67","392706","0.0-3.63-0.63","7f10f485-b99a-41aa-8512-f2769414239d","","3412","0","breath_counting","","","40,39","3412","added!",""
"3117","40","poldrack-single-stim","68","395828","0.0-3.64-0.64","7f10f485-b99a-41aa-8512-f2769414239d","","3117","0","breath_counting","","","40,39","3117","added!",""
"3067","39","poldrack-single-stim","69","398898","0.0-3.65-0.65","7f10f485-b99a-41aa-8512-f2769414239d","","3067","0","breath_counting","","","40,39","3067","added!",""
"2868","40","poldrack-single-stim","70","401770","0.0-3.66-0.66","7f10f485-b99a-41aa-8512-f2769414239d","","2868","0","breath_counting","","","40,39","2868","added!",""
"3428","40","poldrack-single-stim","71","405202","0.0-3.67-0.67","7f10f485-b99a-41aa-8512-f2769414239d","","3428","0","breath_counting","","","40,39","3428","added!",""
"3863","40","poldrack-single-stim","72","409069","0.0-3.68-0.68","7f10f485-b99a-41aa-8512-f2769414239d","","3863","0","breath_counting","","","40,39","3863","added!",""
"3099","40","poldrack-single-stim","73","412170","0.0-3.69-0.69","7f10f485-b99a-41aa-8512-f2769414239d","","3099","0","breath_counting","","","40,39","3099","added!",""
"3453","40","poldrack-single-stim","74","415627","0.0-3.70-0.70","7f10f485-b99a-41aa-8512-f2769414239d","","3453","0","breath_counting","","","40,39","3453","added!",""
"4861","40","poldrack-single-stim","75","420491","0.0-3.71-0.71","7f10f485-b99a-41aa-8512-f2769414239d","","4861","0","breath_counting","","","40,39","4861","added!",""
"3276","40","poldrack-single-stim","76","423770","0.0-3.72-0.72","7f10f485-b99a-41aa-8512-f2769414239d","","3276","0","breath_counting","","","40,39","3276","added!",""
"3434","39","poldrack-single-stim","77","427207","0.0-3.73-0.73","7f10f485-b99a-41aa-8512-f2769414239d","","3434","0","breath_counting","","","40,39","3434","added!",""
"4029","40","poldrack-single-stim","78","431236","0.0-3.74-0.74","7f10f485-b99a-41aa-8512-f2769414239d","","4029","0","breath_counting","","","40,39","4029","added!",""
"3288","40","poldrack-single-stim","79","434530","0.0-3.75-0.75","7f10f485-b99a-41aa-8512-f2769414239d","","3288","0","breath_counting","","","40,39","3288","added!",""
"3494","40","poldrack-single-stim","80","438027","0.0-3.76-0.76","7f10f485-b99a-41aa-8512-f2769414239d","","3494","0","breath_counting","","","40,39","3494","added!",""
"3109","40","poldrack-single-stim","81","441138","0.0-3.77-0.77","7f10f485-b99a-41aa-8512-f2769414239d","","3109","0","breath_counting","","","40,39","3109","added!",""
"2848","40","poldrack-single-stim","82","443988","0.0-3.78-0.78","7f10f485-b99a-41aa-8512-f2769414239d","","2848","0","breath_counting","","","40,39","2848","added!",""
"3235","40","poldrack-single-stim","83","447226","0.0-3.79-0.79","7f10f485-b99a-41aa-8512-f2769414239d","","3235","0","breath_counting","","","40,39","3235","added!",""
"2725","40","poldrack-single-stim","84","449955","0.0-3.80-0.80","7f10f485-b99a-41aa-8512-f2769414239d","","2725","0","breath_counting","","","40,39","2725","added!",""
"2541","40","poldrack-single-stim","85","452499","0.0-3.81-0.81","7f10f485-b99a-41aa-8512-f2769414239d","","2541","0","breath_counting","","","40,39","2541","added!",""
"3094","40","poldrack-single-stim","86","455596","0.0-3.82-0.82","7f10f485-b99a-41aa-8512-f2769414239d","","3094","0","breath_counting","","","40,39","3094","added!",""
"1924","39","poldrack-single-stim","87","457523","0.0-3.83-0.83","7f10f485-b99a-41aa-8512-f2769414239d","","1924","0","breath_counting","","","40,39","1924","added!",""
"6597","40","poldrack-single-stim","88","464123","0.0-3.84-0.84","7f10f485-b99a-41aa-8512-f2769414239d","","6597","0","breath_counting","","","40,39","6597","added!",""
"1380","40","poldrack-single-stim","89","465507","0.0-3.85-0.85","7f10f485-b99a-41aa-8512-f2769414239d","","1380","0","breath_counting","","","40,39","1380","added!",""
"2614","40","poldrack-single-stim","90","468124","0.0-3.86-0.86","7f10f485-b99a-41aa-8512-f2769414239d","","2614","0","breath_counting","","","40,39","2614","added!",""
"2788","40","poldrack-single-stim","91","470915","0.0-3.87-0.87","7f10f485-b99a-41aa-8512-f2769414239d","","2788","0","breath_counting","","","40,39","2788","added!",""
"2732","40","poldrack-single-stim","92","473651","0.0-3.88-0.88","7f10f485-b99a-41aa-8512-f2769414239d","","2732","0","breath_counting","","","40,39","2732","added!",""
"2644","40","poldrack-single-stim","93","476299","0.0-3.89-0.89","7f10f485-b99a-41aa-8512-f2769414239d","","2644","0","breath_counting","","","40,39","2644","added!",""
"3278","40","poldrack-single-stim","94","479579","0.0-3.90-0.90","7f10f485-b99a-41aa-8512-f2769414239d","","3278","0","breath_counting","","","40,39","3278","added!",""
"3123","40","poldrack-single-stim","95","482706","0.0-3.91-0.91","7f10f485-b99a-41aa-8512-f2769414239d","","3123","0","breath_counting","","","40,39","3123","added!",""
"2813","39","poldrack-single-stim","96","485523","0.0-3.92-0.92","7f10f485-b99a-41aa-8512-f2769414239d","","2813","0","breath_counting","","","40,39","2813","added!",""
"3847","40","poldrack-single-stim","97","489374","0.0-3.93-0.93","7f10f485-b99a-41aa-8512-f2769414239d","","3847","0","breath_counting","","","40,39","3847","added!",""
"3428","40","poldrack-single-stim","98","492805","0.0-3.94-0.94","7f10f485-b99a-41aa-8512-f2769414239d","","3428","0","breath_counting","","","40,39","3428","added!",""
"2068","40","poldrack-single-stim","99","494875","0.0-3.95-0.95","7f10f485-b99a-41aa-8512-f2769414239d","","2068","0","breath_counting","","","40,39","2068","added!",""
"3284","40","poldrack-single-stim","100","498162","0.0-3.96-0.96","7f10f485-b99a-41aa-8512-f2769414239d","","3284","0","breath_counting","","","40,39","3284","added!",""
"4397","40","poldrack-single-stim","101","502563","0.0-3.97-0.97","7f10f485-b99a-41aa-8512-f2769414239d","","4397","0","breath_counting","","","40,39","4397","added!",""
"3781","40","poldrack-single-stim","102","506349","0.0-3.98-0.98","7f10f485-b99a-41aa-8512-f2769414239d","","3781","0","breath_counting","","","40,39","3781","added!",""
"3538","40","poldrack-single-stim","103","509891","0.0-3.99-0.99","7f10f485-b99a-41aa-8512-f2769414239d","","3538","0","breath_counting","","","40,39","3538","added!",""
"3884","39","poldrack-single-stim","104","513779","0.0-3.100-0.100","7f10f485-b99a-41aa-8512-f2769414239d","","3884","0","breath_counting","","","40,39","3884","added!",""
"3901","40","poldrack-single-stim","105","517684","0.0-3.101-0.101","7f10f485-b99a-41aa-8512-f2769414239d","","3901","0","breath_counting","","","40,39","3901","added!",""
"3018","40","poldrack-single-stim","106","520707","0.0-3.102-0.102","7f10f485-b99a-41aa-8512-f2769414239d","","3018","0","breath_counting","","","40,39","3018","added!",""
"2371","40","poldrack-single-stim","107","523083","0.0-3.103-0.103","7f10f485-b99a-41aa-8512-f2769414239d","","2371","0","breath_counting","","","40,39","2371","added!",""
"3268","40","poldrack-single-stim","108","526355","0.0-3.104-0.104","7f10f485-b99a-41aa-8512-f2769414239d","","3268","0","breath_counting","","","40,39","3268","added!",""
"3205","40","poldrack-single-stim","109","529564","0.0-3.105-0.105","7f10f485-b99a-41aa-8512-f2769414239d","","3205","0","breath_counting","","","40,39","3205","added!",""
"2675","40","poldrack-single-stim","110","532243","0.0-3.106-0.106","7f10f485-b99a-41aa-8512-f2769414239d","","2675","0","breath_counting","","","40,39","2675","added!",""
"3140","40","poldrack-single-stim","111","535387","0.0-3.107-0.107","7f10f485-b99a-41aa-8512-f2769414239d","","3140","0","breath_counting","","","40,39","3140","added!",""
"2724","40","poldrack-single-stim","112","538116","0.0-3.108-0.108","7f10f485-b99a-41aa-8512-f2769414239d","","2724","0","breath_counting","","","40,39","2724","added!",""
"2997","39","poldrack-single-stim","113","541117","0.0-3.109-0.109","7f10f485-b99a-41aa-8512-f2769414239d","","2997","0","breath_counting","","","40,39","2997","added!",""
"2072","40","poldrack-single-stim","114","543195","0.0-3.110-0.110","7f10f485-b99a-41aa-8512-f2769414239d","","2072","0","breath_counting","","","40,39","2072","added!",""
"2949","40","poldrack-single-stim","115","546149","0.0-3.111-0.111","7f10f485-b99a-41aa-8512-f2769414239d","","2949","0","breath_counting","","","40,39","2949","added!",""
"2499","40","poldrack-single-stim","116","548651","0.0-3.112-0.112","7f10f485-b99a-41aa-8512-f2769414239d","","2499","0","breath_counting","","","40,39","2499","added!",""
"2388","40","poldrack-single-stim","117","551044","0.0-3.113-0.113","7f10f485-b99a-41aa-8512-f2769414239d","","2388","0","breath_counting","","","40,39","2388","added!",""
"2613","40","poldrack-single-stim","118","553662","0.0-3.114-0.114","7f10f485-b99a-41aa-8512-f2769414239d","","2613","0","breath_counting","","","40,39","2613","added!",""
"2148","40","poldrack-single-stim","119","555820","0.0-3.115-0.115","7f10f485-b99a-41aa-8512-f2769414239d","","2148","0","breath_counting","","","40,39","2148","added!",""
"2919","40","poldrack-single-stim","120","558739","0.0-3.116-0.116","7f10f485-b99a-41aa-8512-f2769414239d","","2919","0","breath_counting","","","40,39","2919","added!",""
"2811","40","poldrack-single-stim","121","561556","0.0-3.117-0.117","7f10f485-b99a-41aa-8512-f2769414239d","","2811","0","breath_counting","","","40,39","2811","added!",""
"2230","39","poldrack-single-stim","122","563789","0.0-3.118-0.118","7f10f485-b99a-41aa-8512-f2769414239d","","2230","0","breath_counting","","","40,39","2230","added!",""
"2386","40","poldrack-single-stim","123","566180","0.0-3.119-0.119","7f10f485-b99a-41aa-8512-f2769414239d","","2386","0","breath_counting","","","40,39","2386","added!",""
"4524","40","poldrack-single-stim","124","570708","0.0-3.120-0.120","7f10f485-b99a-41aa-8512-f2769414239d","","4524","0","breath_counting","","","40,39","4524","added!",""
"2837","40","poldrack-single-stim","125","573548","0.0-3.121-0.121","7f10f485-b99a-41aa-8512-f2769414239d","","2837","0","breath_counting","","","40,39","2837","added!",""
"3630","40","poldrack-single-stim","126","577182","0.0-3.122-0.122","7f10f485-b99a-41aa-8512-f2769414239d","","3630","0","breath_counting","","","40,39","3630","added!",""
"2963","40","poldrack-single-stim","127","580148","0.0-3.123-0.123","7f10f485-b99a-41aa-8512-f2769414239d","","2963","0","breath_counting","","","40,39","2963","added!",""
"4107","40","poldrack-single-stim","128","584260","0.0-3.124-0.124","7f10f485-b99a-41aa-8512-f2769414239d","","4107","0","breath_counting","","","40,39","4107","added!",""
"3382","40","poldrack-single-stim","129","587646","0.0-3.125-0.125","7f10f485-b99a-41aa-8512-f2769414239d","","3382","0","breath_counting","","","40,39","3382","added!",""
"4034","40","poldrack-single-stim","130","591684","0.0-3.126-0.126","7f10f485-b99a-41aa-8512-f2769414239d","","4034","0","breath_counting","","","40,39","4034","added!",""
"3244","39","poldrack-single-stim","131","594931","0.0-3.127-0.127","7f10f485-b99a-41aa-8512-f2769414239d","","3244","0","breath_counting","","","40,39","3244","added!",""
"2214","40","poldrack-single-stim","132","597148","0.0-3.128-0.128","7f10f485-b99a-41aa-8512-f2769414239d","","2214","0","breath_counting","","","40,39","2214","added!",""
"3501","40","poldrack-single-stim","133","600653","0.0-3.129-0.129","7f10f485-b99a-41aa-8512-f2769414239d","","3501","0","breath_counting","","","40,39","3501","added!",""
"4230","40","poldrack-single-stim","134","604884","0.0-3.130-0.130","7f10f485-b99a-41aa-8512-f2769414239d","","4230","0","breath_counting","","","40,39","4230","added!",""
"3618","40","poldrack-single-stim","135","608507","0.0-3.131-0.131","7f10f485-b99a-41aa-8512-f2769414239d","","3618","0","breath_counting","","","40,39","3618","added!",""
"2327","40","poldrack-single-stim","136","610838","0.0-3.132-0.132","7f10f485-b99a-41aa-8512-f2769414239d","","2327","0","breath_counting","","","40,39","2327","added!",""
"1970","40","poldrack-single-stim","137","612812","0.0-3.133-0.133","7f10f485-b99a-41aa-8512-f2769414239d","","1970","0","breath_counting","","","40,39","1970","added!",""
"2890","40","poldrack-single-stim","138","615708","0.0-3.134-0.134","7f10f485-b99a-41aa-8512-f2769414239d","","2890","0","breath_counting","","","40,39","2890","added!",""
"3086","40","poldrack-single-stim","139","618796","0.0-3.135-0.135","7f10f485-b99a-41aa-8512-f2769414239d","","3086","0","breath_counting","","","40,39","3086","added!",""
"3782","40","poldrack-single-stim","140","622581","0.0-3.136-0.136","7f10f485-b99a-41aa-8512-f2769414239d","","3782","0","breath_counting","","","40,39","3782","added!",""
"2945","39","poldrack-single-stim","141","625531","0.0-3.137-0.137","7f10f485-b99a-41aa-8512-f2769414239d","","2945","0","breath_counting","","","40,39","2945","added!",""
"4893","40","poldrack-single-stim","142","630428","0.0-3.138-0.138","7f10f485-b99a-41aa-8512-f2769414239d","","4893","0","breath_counting","","","40,39","4893","added!",""
"3692","40","poldrack-single-stim","143","634125","0.0-3.139-0.139","7f10f485-b99a-41aa-8512-f2769414239d","","3692","0","breath_counting","","","40,39","3692","added!",""
"2620","40","poldrack-single-stim","144","636748","0.0-3.140-0.140","7f10f485-b99a-41aa-8512-f2769414239d","","2620","0","breath_counting","","","40,39","2620","added!",""
"2414","40","poldrack-single-stim","145","639163","0.0-3.141-0.141","7f10f485-b99a-41aa-8512-f2769414239d","","2414","0","breath_counting","","","40,39","2414","added!",""
"2436","40","poldrack-single-stim","146","641603","0.0-3.142-0.142","7f10f485-b99a-41aa-8512-f2769414239d","","2436","0","breath_counting","","","40,39","2436","added!",""
"3583","40","poldrack-single-stim","147","645190","0.0-3.143-0.143","7f10f485-b99a-41aa-8512-f2769414239d","","3583","0","breath_counting","","","40,39","3583","added!",""
"3625","40","poldrack-single-stim","148","648820","0.0-3.144-0.144","7f10f485-b99a-41aa-8512-f2769414239d","","3625","0","breath_counting","","","40,39","3625","added!",""
"2987","39","poldrack-single-stim","149","651812","0.0-3.145-0.145","7f10f485-b99a-41aa-8512-f2769414239d","","2987","0","breath_counting","","","40,39","2987","added!",""
"2333","40","poldrack-single-stim","150","654149","0.0-3.146-0.146","7f10f485-b99a-41aa-8512-f2769414239d","","2333","0","breath_counting","","","40,39","2333","added!",""
"2893","40","poldrack-single-stim","151","657045","0.0-3.147-0.147","7f10f485-b99a-41aa-8512-f2769414239d","","2893","0","breath_counting","","","40,39","2893","added!",""
"3606","40","poldrack-single-stim","152","660653","0.0-3.148-0.148","7f10f485-b99a-41aa-8512-f2769414239d","","3606","0","breath_counting","","","40,39","3606","added!",""
"2746","40","poldrack-single-stim","153","663405","0.0-3.149-0.149","7f10f485-b99a-41aa-8512-f2769414239d","","2746","0","breath_counting","","","40,39","2746","added!",""
"2667","40","poldrack-single-stim","154","666075","0.0-3.150-0.150","7f10f485-b99a-41aa-8512-f2769414239d","","2667","0","breath_counting","","","40,39","2667","added!",""
"2527","40","poldrack-single-stim","155","668606","0.0-3.151-0.151","7f10f485-b99a-41aa-8512-f2769414239d","","2527","0","breath_counting","","","40,39","2527","added!",""
"2315","40","poldrack-single-stim","156","670925","0.0-3.152-0.152","7f10f485-b99a-41aa-8512-f2769414239d","","2315","0","breath_counting","","","40,39","2315","added!",""
"2876","40","poldrack-single-stim","157","673805","0.0-3.153-0.153","7f10f485-b99a-41aa-8512-f2769414239d","","2876","0","breath_counting","","","40,39","2876","added!",""
"411","39","poldrack-single-stim","158","674221","0.0-3.154-0.154","7f10f485-b99a-41aa-8512-f2769414239d","","411","0","breath_counting","","","40,39","411","added!",""
"3506","40","poldrack-single-stim","159","677733","0.0-3.155-0.155","7f10f485-b99a-41aa-8512-f2769414239d","","3506","0","breath_counting","","","40,39","3506","added!",""
"2997","40","poldrack-single-stim","160","680735","0.0-3.156-0.156","7f10f485-b99a-41aa-8512-f2769414239d","","2997","0","breath_counting","","","40,39","2997","added!",""
"2961","40","poldrack-single-stim","161","683701","0.0-3.157-0.157","7f10f485-b99a-41aa-8512-f2769414239d","","2961","0","breath_counting","","","40,39","2961","added!",""
"2404","40","poldrack-single-stim","162","686109","0.0-3.158-0.158","7f10f485-b99a-41aa-8512-f2769414239d","","2404","0","breath_counting","","","40,39","2404","added!",""
"2931","40","poldrack-single-stim","163","689045","0.0-3.159-0.159","7f10f485-b99a-41aa-8512-f2769414239d","","2931","0","breath_counting","","","40,39","2931","added!",""
"2862","40","poldrack-single-stim","164","691911","0.0-3.160-0.160","7f10f485-b99a-41aa-8512-f2769414239d","","2862","0","breath_counting","","","40,39","2862","added!",""
"2602","40","poldrack-single-stim","165","694517","0.0-3.161-0.161","7f10f485-b99a-41aa-8512-f2769414239d","","2602","0","breath_counting","","","40,39","2602","added!",""
"2972","40","poldrack-single-stim","166","697493","0.0-3.162-0.162","7f10f485-b99a-41aa-8512-f2769414239d","","2972","0","breath_counting","","","40,39","2972","added!",""
"3203","40","poldrack-single-stim","167","700701","0.0-3.163-0.163","7f10f485-b99a-41aa-8512-f2769414239d","","3203","0","breath_counting","","","40,39","3203","added!",""
"2798","39","poldrack-single-stim","168","703503","0.0-3.164-0.164","7f10f485-b99a-41aa-8512-f2769414239d","","2798","0","breath_counting","","","40,39","2798","added!",""
"2603","40","poldrack-single-stim","169","706109","0.0-3.165-0.165","7f10f485-b99a-41aa-8512-f2769414239d","","2603","0","breath_counting","","","40,39","2603","added!",""
"2602","40","poldrack-single-stim","170","708716","0.0-3.166-0.166","7f10f485-b99a-41aa-8512-f2769414239d","","2602","0","breath_counting","","","40,39","2602","added!",""
"2613","40","poldrack-single-stim","171","711333","0.0-3.167-0.167","7f10f485-b99a-41aa-8512-f2769414239d","","2613","0","breath_counting","","","40,39","2613","added!",""
"2003","40","poldrack-single-stim","172","713341","0.0-3.168-0.168","7f10f485-b99a-41aa-8512-f2769414239d","","2003","0","breath_counting","","","40,39","2003","added!",""
"2549","40","poldrack-single-stim","173","715895","0.0-3.169-0.169","7f10f485-b99a-41aa-8512-f2769414239d","","2549","0","breath_counting","","","40,39","2549","added!",""
"2297","40","poldrack-single-stim","174","718196","0.0-3.170-0.170","7f10f485-b99a-41aa-8512-f2769414239d","","2297","0","breath_counting","","","40,39","2297","added!",""
"2453","40","poldrack-single-stim","175","720653","0.0-3.171-0.171","7f10f485-b99a-41aa-8512-f2769414239d","","2453","0","breath_counting","","","40,39","2453","added!",""
"2627","40","poldrack-single-stim","176","723285","0.0-3.172-0.172","7f10f485-b99a-41aa-8512-f2769414239d","","2627","0","breath_counting","","","40,39","2627","added!",""
"1963","39","poldrack-single-stim","177","725253","0.0-3.173-0.173","7f10f485-b99a-41aa-8512-f2769414239d","","1963","0","breath_counting","","","40,39","1963","added!",""
"4948","40","poldrack-single-stim","178","730206","0.0-3.174-0.174","7f10f485-b99a-41aa-8512-f2769414239d","","4948","0","breath_counting","","","40,39","4948","added!",""
"2307","40","poldrack-single-stim","179","732517","0.0-3.175-0.175","7f10f485-b99a-41aa-8512-f2769414239d","","2307","0","breath_counting","","","40,39","2307","added!",""
"2266","40","poldrack-single-stim","180","734789","0.0-3.176-0.176","7f10f485-b99a-41aa-8512-f2769414239d","","2266","0","breath_counting","","","40,39","2266","added!",""
"2692","40","poldrack-single-stim","181","737485","0.0-3.177-0.177","7f10f485-b99a-41aa-8512-f2769414239d","","2692","0","breath_counting","","","40,39","2692","added!",""
"2069","40","poldrack-single-stim","182","739558","0.0-3.178-0.178","7f10f485-b99a-41aa-8512-f2769414239d","","2069","0","breath_counting","","","40,39","2069","added!",""
"2167","40","poldrack-single-stim","183","741727","0.0-3.179-0.179","7f10f485-b99a-41aa-8512-f2769414239d","","2167","0","breath_counting","","","40,39","2167","added!",""
"2185","40","poldrack-single-stim","184","743917","0.0-3.180-0.180","7f10f485-b99a-41aa-8512-f2769414239d","","2185","0","breath_counting","","","40,39","2185","added!",""
"1882","40","poldrack-single-stim","185","745805","0.0-3.181-0.181","7f10f485-b99a-41aa-8512-f2769414239d","","1882","0","breath_counting","","","40,39","1882","added!",""
"2516","39","poldrack-single-stim","186","748326","0.0-3.182-0.182","7f10f485-b99a-41aa-8512-f2769414239d","","2516","0","breath_counting","","","40,39","2516","added!",""
"2698","40","poldrack-single-stim","187","751029","0.0-3.183-0.183","7f10f485-b99a-41aa-8512-f2769414239d","","2698","0","breath_counting","","","40,39","2698","added!",""
"1844","40","poldrack-single-stim","188","752879","0.0-3.184-0.184","7f10f485-b99a-41aa-8512-f2769414239d","","1844","0","breath_counting","","","40,39","1844","added!",""
"2193","40","poldrack-single-stim","189","755077","0.0-3.185-0.185","7f10f485-b99a-41aa-8512-f2769414239d","","2193","0","breath_counting","","","40,39","2193","added!",""
"1714","40","poldrack-single-stim","190","756797","0.0-3.186-0.186","7f10f485-b99a-41aa-8512-f2769414239d","","1714","0","breath_counting","","","40,39","1714","added!",""
"2228","40","poldrack-single-stim","191","759030","0.0-3.187-0.187","7f10f485-b99a-41aa-8512-f2769414239d","","2228","0","breath_counting","","","40,39","2228","added!",""
"3523","40","poldrack-single-stim","192","762558","0.0-3.188-0.188","7f10f485-b99a-41aa-8512-f2769414239d","","3523","0","breath_counting","","","40,39","3523","added!",""
"3158","40","poldrack-single-stim","193","765720","0.0-3.189-0.189","7f10f485-b99a-41aa-8512-f2769414239d","","3158","0","breath_counting","","","40,39","3158","added!",""
"3241","40","poldrack-single-stim","194","768966","0.0-3.190-0.190","7f10f485-b99a-41aa-8512-f2769414239d","","3241","0","breath_counting","","","40,39","3241","added!",""
"2680","39","poldrack-single-stim","195","771653","0.0-3.191-0.191","7f10f485-b99a-41aa-8512-f2769414239d","","2680","0","breath_counting","","","40,39","2680","added!",""
"3012","40","poldrack-single-stim","196","774669","0.0-3.192-0.192","7f10f485-b99a-41aa-8512-f2769414239d","","3012","0","breath_counting","","","40,39","3012","added!",""
"3031","40","poldrack-single-stim","197","777703","0.0-3.193-0.193","7f10f485-b99a-41aa-8512-f2769414239d","","3031","0","breath_counting","","","40,39","3031","added!",""
"3986","40","poldrack-single-stim","198","781694","0.0-3.194-0.194","7f10f485-b99a-41aa-8512-f2769414239d","","3986","0","breath_counting","","","40,39","3986","added!",""
"3379","40","poldrack-single-stim","199","785077","0.0-3.195-0.195","7f10f485-b99a-41aa-8512-f2769414239d","","3379","0","breath_counting","","","40,39","3379","added!",""
"2973","40","poldrack-single-stim","200","788055","0.0-3.196-0.196","7f10f485-b99a-41aa-8512-f2769414239d","","2973","0","breath_counting","","","40,39","2973","added!",""
"2881","40","poldrack-single-stim","201","790942","0.0-3.197-0.197","7f10f485-b99a-41aa-8512-f2769414239d","","2881","0","breath_counting","","","40,39","2881","added!",""
"2188","40","poldrack-single-stim","202","793134","0.0-3.198-0.198","7f10f485-b99a-41aa-8512-f2769414239d","","2188","0","breath_counting","","","40,39","2188","added!",""
"2555","40","poldrack-single-stim","203","795694","0.0-3.199-0.199","7f10f485-b99a-41aa-8512-f2769414239d","","2555","0","breath_counting","","","40,39","2555","added!",""
"2747","40","poldrack-single-stim","204","798448","0.0-3.200-0.200","7f10f485-b99a-41aa-8512-f2769414239d","","2747","0","breath_counting","","","40,39","2747","added!",""
"2545","40","poldrack-single-stim","205","800998","0.0-3.201-0.201","7f10f485-b99a-41aa-8512-f2769414239d","","2545","0","breath_counting","","","40,39","2545","added!",""
"2451","39","poldrack-single-stim","206","803454","0.0-3.202-0.202","7f10f485-b99a-41aa-8512-f2769414239d","","2451","0","breath_counting","","","40,39","2451","added!",""
"2019","40","poldrack-single-stim","207","805478","0.0-3.203-0.203","7f10f485-b99a-41aa-8512-f2769414239d","","2019","0","breath_counting","","","40,39","2019","added!",""
"2627","40","poldrack-single-stim","208","808110","0.0-3.204-0.204","7f10f485-b99a-41aa-8512-f2769414239d","","2627","0","breath_counting","","","40,39","2627","added!",""
"2644","40","poldrack-single-stim","209","810759","0.0-3.205-0.205","7f10f485-b99a-41aa-8512-f2769414239d","","2644","0","breath_counting","","","40,39","2644","added!",""
"2218","40","poldrack-single-stim","210","812982","0.0-3.206-0.206","7f10f485-b99a-41aa-8512-f2769414239d","","2218","0","breath_counting","","","40,39","2218","added!",""
"2234","40","poldrack-single-stim","211","815222","0.0-3.207-0.207","7f10f485-b99a-41aa-8512-f2769414239d","","2234","0","breath_counting","","","40,39","2234","added!",""
"2066","40","poldrack-single-stim","212","817294","0.0-3.208-0.208","7f10f485-b99a-41aa-8512-f2769414239d","","2066","0","breath_counting","","","40,39","2066","added!",""
"2280","40","poldrack-single-stim","213","819581","0.0-3.209-0.209","7f10f485-b99a-41aa-8512-f2769414239d","","2280","0","breath_counting","","","40,39","2280","added!",""
"2630","40","poldrack-single-stim","214","822216","0.0-3.210-0.210","7f10f485-b99a-41aa-8512-f2769414239d","","2630","0","breath_counting","","","40,39","2630","added!",""
"2071","39","poldrack-single-stim","215","824293","0.0-3.211-0.211","7f10f485-b99a-41aa-8512-f2769414239d","","2071","0","breath_counting","","","40,39","2071","added!",""
"3916","40","poldrack-single-stim","216","828214","0.0-3.212-0.212","7f10f485-b99a-41aa-8512-f2769414239d","","3916","0","breath_counting","","","40,39","3916","added!",""
"4042","40","poldrack-single-stim","217","832264","0.0-3.213-0.213","7f10f485-b99a-41aa-8512-f2769414239d","","4042","0","breath_counting","","","40,39","4042","added!",""
"3081","40","poldrack-single-stim","218","835350","0.0-3.214-0.214","7f10f485-b99a-41aa-8512-f2769414239d","","3081","0","breath_counting","","","40,39","3081","added!",""
"3068","40","poldrack-single-stim","219","838422","0.0-3.215-0.215","7f10f485-b99a-41aa-8512-f2769414239d","","3068","0","breath_counting","","","40,39","3068","added!",""
"3131","40","poldrack-single-stim","220","841558","0.0-3.216-0.216","7f10f485-b99a-41aa-8512-f2769414239d","","3131","0","breath_counting","","","40,39","3131","added!",""
"2996","40","poldrack-single-stim","221","844560","0.0-3.217-0.217","7f10f485-b99a-41aa-8512-f2769414239d","","2996","0","breath_counting","","","40,39","2996","added!",""
"3617","40","poldrack-single-stim","222","848182","0.0-3.218-0.218","7f10f485-b99a-41aa-8512-f2769414239d","","3617","0","breath_counting","","","40,39","3617","added!",""
"2890","40","poldrack-single-stim","223","851078","0.0-3.219-0.219","7f10f485-b99a-41aa-8512-f2769414239d","","2890","0","breath_counting","","","40,39","2890","added!",""
"2548","40","poldrack-single-stim","224","853630","0.0-3.220-0.220","7f10f485-b99a-41aa-8512-f2769414239d","","2548","0","breath_counting","","","40,39","2548","added!",""
"3120","39","poldrack-single-stim","225","856759","0.0-3.221-0.221","7f10f485-b99a-41aa-8512-f2769414239d","","3120","0","breath_counting","","","40,39","3120","added!",""
"3738","40","poldrack-single-stim","226","860502","0.0-3.222-0.222","7f10f485-b99a-41aa-8512-f2769414239d","","3738","0","breath_counting","","","40,39","3738","added!",""
"3386","40","poldrack-single-stim","227","863894","0.0-3.223-0.223","7f10f485-b99a-41aa-8512-f2769414239d","","3386","0","breath_counting","","","40,39","3386","added!",""
"2379","40","poldrack-single-stim","228","866277","0.0-3.224-0.224","7f10f485-b99a-41aa-8512-f2769414239d","","2379","0","breath_counting","","","40,39","2379","added!",""
"2668","40","poldrack-single-stim","229","868952","0.0-3.225-0.225","7f10f485-b99a-41aa-8512-f2769414239d","","2668","0","breath_counting","","","40,39","2668","added!",""
"2969","40","poldrack-single-stim","230","871926","0.0-3.226-0.226","7f10f485-b99a-41aa-8512-f2769414239d","","2969","0","breath_counting","","","40,39","2969","added!",""
"2978","40","poldrack-single-stim","231","874910","0.0-3.227-0.227","7f10f485-b99a-41aa-8512-f2769414239d","","2978","0","breath_counting","","","40,39","2978","added!",""
"3020","40","poldrack-single-stim","232","877935","0.0-3.228-0.228","7f10f485-b99a-41aa-8512-f2769414239d","","3020","0","breath_counting","","","40,39","3020","added!",""
"3659","40","poldrack-single-stim","233","881600","0.0-3.229-0.229","7f10f485-b99a-41aa-8512-f2769414239d","","3659","0","breath_counting","","","40,39","3659","added!",""
"2792","39","poldrack-single-stim","234","884398","0.0-3.230-0.230","7f10f485-b99a-41aa-8512-f2769414239d","","2792","0","breath_counting","","","40,39","2792","added!",""
"3408","40","poldrack-single-stim","235","887814","0.0-3.231-0.231","7f10f485-b99a-41aa-8512-f2769414239d","","3408","0","breath_counting","","","40,39","3408","added!",""
"3830","40","poldrack-single-stim","236","891649","0.0-3.232-0.232","7f10f485-b99a-41aa-8512-f2769414239d","","3830","0","breath_counting","","","40,39","3830","added!",""
"3422","40","poldrack-single-stim","237","895078","0.0-3.233-0.233","7f10f485-b99a-41aa-8512-f2769414239d","","3422","0","breath_counting","","","40,39","3422","added!",""
"3163","40","poldrack-single-stim","238","898246","0.0-3.234-0.234","7f10f485-b99a-41aa-8512-f2769414239d","","3163","0","breath_counting","","","40,39","3163","added!",""
"3020","40","poldrack-single-stim","239","901270","0.0-3.235-0.235","7f10f485-b99a-41aa-8512-f2769414239d","","3020","0","breath_counting","","","40,39","3020","added!",""
"2791","40","poldrack-single-stim","240","904065","0.0-3.236-0.236","7f10f485-b99a-41aa-8512-f2769414239d","","2791","0","breath_counting","","","40,39","2791","added!",""
"3172","40","poldrack-single-stim","241","907239","0.0-3.237-0.237","7f10f485-b99a-41aa-8512-f2769414239d","","3172","0","breath_counting","","","40,39","3172","added!",""
"3027","40","poldrack-single-stim","242","910271","0.0-3.238-0.238","7f10f485-b99a-41aa-8512-f2769414239d","","3027","0","breath_counting","","","40,39","3027","added!",""
"2898","39","poldrack-single-stim","243","913175","0.0-3.239-0.239","7f10f485-b99a-41aa-8512-f2769414239d","","2898","0","breath_counting","","","40,39","2898","added!",""
"3092","40","poldrack-single-stim","244","916272","0.0-3.240-0.240","7f10f485-b99a-41aa-8512-f2769414239d","","3092","0","breath_counting","","","40,39","3092","added!",""
"2951","40","poldrack-single-stim","245","919231","0.0-3.241-0.241","7f10f485-b99a-41aa-8512-f2769414239d","","2951","0","breath_counting","","","40,39","2951","added!",""
"2865","40","poldrack-single-stim","246","922101","0.0-3.242-0.242","7f10f485-b99a-41aa-8512-f2769414239d","","2865","0","breath_counting","","","40,39","2865","added!",""
"3015","40","poldrack-single-stim","247","925119","0.0-3.243-0.243","7f10f485-b99a-41aa-8512-f2769414239d","","3015","0","breath_counting","","","40,39","3015","added!",""
"2435","40","poldrack-single-stim","248","927560","0.0-3.244-0.244","7f10f485-b99a-41aa-8512-f2769414239d","","2435","0","breath_counting","","","40,39","2435","added!",""
"2911","40","poldrack-single-stim","249","930478","0.0-3.245-0.245","7f10f485-b99a-41aa-8512-f2769414239d","","2911","0","breath_counting","","","40,39","2911","added!",""
"3154","40","poldrack-single-stim","250","933638","0.0-3.246-0.246","7f10f485-b99a-41aa-8512-f2769414239d","","3154","0","breath_counting","","","40,39","3154","added!",""
"4628","39","poldrack-single-stim","251","938272","0.0-3.247-0.247","7f10f485-b99a-41aa-8512-f2769414239d","","4628","0","breath_counting","","","40,39","4628","added!",""
"2663","40","poldrack-single-stim","252","940943","0.0-3.248-0.248","7f10f485-b99a-41aa-8512-f2769414239d","","2663","0","breath_counting","","","40,39","2663","added!",""
"2546","40","poldrack-single-stim","253","943495","0.0-3.249-0.249","7f10f485-b99a-41aa-8512-f2769414239d","","2546","0","breath_counting","","","40,39","2546","added!",""
"2707","40","poldrack-single-stim","254","946207","0.0-3.250-0.250","7f10f485-b99a-41aa-8512-f2769414239d","","2707","0","breath_counting","","","40,39","2707","added!",""
"3938","40","poldrack-single-stim","255","950152","0.0-3.251-0.251","7f10f485-b99a-41aa-8512-f2769414239d","","3938","0","breath_counting","","","40,39","3938","added!",""
"3496","40","poldrack-single-stim","256","953655","0.0-3.252-0.252","7f10f485-b99a-41aa-8512-f2769414239d","","3496","0","breath_counting","","","40,39","3496","added!",""
"3955","40","poldrack-single-stim","257","957615","0.0-3.253-0.253","7f10f485-b99a-41aa-8512-f2769414239d","","3955","0","breath_counting","","","40,39","3955","added!",""
"3178","40","poldrack-single-stim","258","960799","0.0-3.254-0.254","7f10f485-b99a-41aa-8512-f2769414239d","","3178","0","breath_counting","","","40,39","3178","added!",""
"3772","40","poldrack-single-stim","259","964575","0.0-3.255-0.255","7f10f485-b99a-41aa-8512-f2769414239d","","3772","0","breath_counting","","","40,39","3772","added!",""
"3122","39","poldrack-single-stim","260","967703","0.0-3.256-0.256","7f10f485-b99a-41aa-8512-f2769414239d","","3122","0","breath_counting","","","40,39","3122","added!",""
"4220","40","poldrack-single-stim","261","971929","0.0-3.257-0.257","7f10f485-b99a-41aa-8512-f2769414239d","","4220","0","breath_counting","","","40,39","4220","added!",""
"3647","40","poldrack-single-stim","262","975582","0.0-3.258-0.258","7f10f485-b99a-41aa-8512-f2769414239d","","3647","0","breath_counting","","","40,39","3647","added!",""
"2890","40","poldrack-single-stim","263","978479","0.0-3.259-0.259","7f10f485-b99a-41aa-8512-f2769414239d","","2890","0","breath_counting","","","40,39","2890","added!",""
"3010","40","poldrack-single-stim","264","981495","0.0-3.260-0.260","7f10f485-b99a-41aa-8512-f2769414239d","","3010","0","breath_counting","","","40,39","3010","added!",""
"3275","40","poldrack-single-stim","265","984776","0.0-3.261-0.261","7f10f485-b99a-41aa-8512-f2769414239d","","3275","0","breath_counting","","","40,39","3275","added!",""
"3057","40","poldrack-single-stim","266","987838","0.0-3.262-0.262","7f10f485-b99a-41aa-8512-f2769414239d","","3057","0","breath_counting","","","40,39","3057","added!",""
"3370","40","poldrack-single-stim","267","991215","0.0-3.263-0.263","7f10f485-b99a-41aa-8512-f2769414239d","","3370","0","breath_counting","","","40,39","3370","added!",""
"3235","40","poldrack-single-stim","268","994455","0.0-3.264-0.264","7f10f485-b99a-41aa-8512-f2769414239d","","3235","0","breath_counting","","","40,39","3235","added!",""
"3075","40","poldrack-single-stim","269","997537","0.0-3.265-0.265","7f10f485-b99a-41aa-8512-f2769414239d","","3075","0","breath_counting","","","40,39","3075","added!",""
"2367","39","poldrack-single-stim","270","999912","0.0-3.266-0.266","7f10f485-b99a-41aa-8512-f2769414239d","","2367","0","breath_counting","","","40,39","2367","added!",""
"3825","40","poldrack-single-stim","271","1003742","0.0-3.267-0.267","7f10f485-b99a-41aa-8512-f2769414239d","","3825","0","breath_counting","","","40,39","3825","added!",""
"3317","40","poldrack-single-stim","272","1007064","0.0-3.268-0.268","7f10f485-b99a-41aa-8512-f2769414239d","","3317","0","breath_counting","","","40,39","3317","added!",""
"3403","40","poldrack-single-stim","273","1010472","0.0-3.269-0.269","7f10f485-b99a-41aa-8512-f2769414239d","","3403","0","breath_counting","","","40,39","3403","added!",""
"2478","40","poldrack-single-stim","274","1012951","0.0-3.270-0.270","7f10f485-b99a-41aa-8512-f2769414239d","","2478","0","breath_counting","","","40,39","2478","added!",""
"2995","40","poldrack-single-stim","275","1015951","0.0-3.271-0.271","7f10f485-b99a-41aa-8512-f2769414239d","","2995","0","breath_counting","","","40,39","2995","added!",""
"2795","40","poldrack-single-stim","276","1018752","0.0-3.272-0.272","7f10f485-b99a-41aa-8512-f2769414239d","","2795","0","breath_counting","","","40,39","2795","added!",""
"3014","40","poldrack-single-stim","277","1021776","0.0-3.273-0.273","7f10f485-b99a-41aa-8512-f2769414239d","","3014","0","breath_counting","","","40,39","3014","added!",""
"3043","40","poldrack-single-stim","278","1024823","0.0-3.274-0.274","7f10f485-b99a-41aa-8512-f2769414239d","","3043","0","breath_counting","","","40,39","3043","added!",""
"2531","39","poldrack-single-stim","279","1027360","0.0-3.275-0.275","7f10f485-b99a-41aa-8512-f2769414239d","","2531","0","breath_counting","","","40,39","2531","added!",""
"4384","40","poldrack-single-stim","280","1031751","0.0-3.276-0.276","7f10f485-b99a-41aa-8512-f2769414239d","","4384","0","breath_counting","","","40,39","4384","added!",""
"2148","40","poldrack-single-stim","281","1033905","0.0-3.277-0.277","7f10f485-b99a-41aa-8512-f2769414239d","","2148","0","breath_counting","","","40,39","2148","added!",""
"3960","40","poldrack-single-stim","282","1037872","0.0-3.278-0.278","7f10f485-b99a-41aa-8512-f2769414239d","","3960","0","breath_counting","","","40,39","3960","added!",""
"4495","40","poldrack-single-stim","283","1042372","0.0-3.279-0.279","7f10f485-b99a-41aa-8512-f2769414239d","","4495","0","breath_counting","","","40,39","4495","added!",""
"4235","40","poldrack-single-stim","284","1046610","0.0-3.280-0.280","7f10f485-b99a-41aa-8512-f2769414239d","","4235","0","breath_counting","","","40,39","4235","added!",""
"4352","40","poldrack-single-stim","285","1050968","0.0-3.281-0.281","7f10f485-b99a-41aa-8512-f2769414239d","","4352","0","breath_counting","","","40,39","4352","added!",""
"3489","40","poldrack-single-stim","286","1054464","0.0-3.282-0.282","7f10f485-b99a-41aa-8512-f2769414239d","","3489","0","breath_counting","","","40,39","3489","added!",""
"3364","39","poldrack-single-stim","287","1057835","0.0-3.283-0.283","7f10f485-b99a-41aa-8512-f2769414239d","","3364","0","breath_counting","","","40,39","3364","added!",""
"4532","40","poldrack-single-stim","288","1062376","0.0-3.284-0.284","7f10f485-b99a-41aa-8512-f2769414239d","","4532","0","breath_counting","","","40,39","4532","added!",""
"3809","40","poldrack-single-stim","289","1066192","0.0-3.285-0.285","7f10f485-b99a-41aa-8512-f2769414239d","","3809","0","breath_counting","","","40,39","3809","added!",""
"3202","40","poldrack-single-stim","290","1069402","0.0-3.286-0.286","7f10f485-b99a-41aa-8512-f2769414239d","","3202","0","breath_counting","","","40,39","3202","added!",""
"3944","40","poldrack-single-stim","291","1073352","0.0-3.287-0.287","7f10f485-b99a-41aa-8512-f2769414239d","","3944","0","breath_counting","","","40,39","3944","added!",""
"4081","40","poldrack-single-stim","292","1077440","0.0-3.288-0.288","7f10f485-b99a-41aa-8512-f2769414239d","","4081","0","breath_counting","","","40,39","4081","added!",""
"3505","40","poldrack-single-stim","293","1080954","0.0-3.289-0.289","7f10f485-b99a-41aa-8512-f2769414239d","","3505","0","breath_counting","","","40,39","3505","added!",""
"3544","40","poldrack-single-stim","294","1084504","0.0-3.290-0.290","7f10f485-b99a-41aa-8512-f2769414239d","","3544","0","breath_counting","","","40,39","3544","added!",""
"","","call-function","295","1084523","0.0-4.0","7f10f485-b99a-41aa-8512-f2769414239d","","","","","","","","","",""
"6734","13","poldrack-text","296","1091258","0.0-5.0","7f10f485-b99a-41aa-8512-f2769414239d","<div class = centerbox><p class = center-block-text>Great job and thank you! You are now finished with this part of the study.</p><p class = center-block-text>Press <strong>enter</strong> to continue.</p></div>","6734","0","end","","","","","","breath_counting_task"
"1148","13","text","297","1092408","0.0-6.0","7f10f485-b99a-41aa-8512-f2769414239d","","","","","","","","","",""
