"rt","key_press","trial_type","trial_index","time_elapsed","internal_node_id","subject","text","block_duration","timing_post_trial","trial_id","view_history","stimulus","possible_responses","stim_duration","addingOnTrial","exp_id"
"557","13","text","0","561","0.0-0.0","8d6d46b6-7d39-464b-ac2f-713795060a47","","","","","","","","","",""
"1615","13","poldrack-text","1","3181","0.0-1.0-0.0","8d6d46b6-7d39-464b-ac2f-713795060a47","<div class = centerbox><p class = center-block-text>Welcome to the experiment. Press <strong>enter</strong> to begin.</p></div>","1615","0","instruction","","","","","",""
"192447","","poldrack-instructions","2","195630","0.0-1.0-1.0","8d6d46b6-7d39-464b-ac2f-713795060a47","","","","instruction","[{""page_index"":0,""viewing_time"":51174},{""page_index"":1,""viewing_time"":12207},{""page_index"":2,""viewing_time"":77441},{""page_index"":3,""viewing_time"":51624}]","","","","",""
"20401","40","poldrack-single-stim","3","216538","0.0-2.0","8d6d46b6-7d39-464b-ac2f-713795060a47","","20401","0","breath_counting","","<div class=centerbox><p class = center-block-text>Place your attention on the breath.</p><p class = center-block-text>Press the down arrow after your first exhale as you count ""one"", then close your eyes and continue counting breaths and pressing the correct arrow key.</p></div>","40,39","20401","added!",""
"3593","40","poldrack-single-stim","4","220133","0.0-3.0-0.0","8d6d46b6-7d39-464b-ac2f-713795060a47","","3593","0","breath_counting","","","40,39","3593","added!",""
"3411","40","poldrack-single-stim","5","223549","0.0-3.1-0.1","8d6d46b6-7d39-464b-ac2f-713795060a47","","3411","0","breath_counting","","","40,39","3411","added!",""
"3376","40","poldrack-single-stim","6","226928","0.0-3.2-0.2","8d6d46b6-7d39-464b-ac2f-713795060a47","","3376","0","breath_counting","","","40,39","3376","added!",""
"3452","40","poldrack-single-stim","7","230382","0.0-3.3-0.3","8d6d46b6-7d39-464b-ac2f-713795060a47","","3452","0","breath_counting","","","40,39","3452","added!",""
"3389","40","poldrack-single-stim","8","233774","0.0-3.4-0.4","8d6d46b6-7d39-464b-ac2f-713795060a47","","3389","0","breath_counting","","","40,39","3389","added!",""
"3416","40","poldrack-single-stim","9","237192","0.0-3.5-0.5","8d6d46b6-7d39-464b-ac2f-713795060a47","","3416","0","breath_counting","","","40,39","3416","added!",""
"3605","40","poldrack-single-stim","10","240798","0.0-3.6-0.6","8d6d46b6-7d39-464b-ac2f-713795060a47","","3605","0","breath_counting","","","40,39","3605","added!",""
"3413","39","poldrack-single-stim","11","244213","0.0-3.7-0.7","8d6d46b6-7d39-464b-ac2f-713795060a47","","3413","0","breath_counting","","","40,39","3413","added!",""
"3288","40","poldrack-single-stim","12","247504","0.0-3.8-0.8","8d6d46b6-7d39-464b-ac2f-713795060a47","","3288","0","breath_counting","","","40,39","3288","added!",""
"3212","40","poldrack-single-stim","13","250718","0.0-3.9-0.9","8d6d46b6-7d39-464b-ac2f-713795060a47","","3212","0","breath_counting","","","40,39","3212","added!",""
"3361","40","poldrack-single-stim","14","254082","0.0-3.10-0.10","8d6d46b6-7d39-464b-ac2f-713795060a47","","3361","0","breath_counting","","","40,39","3361","added!",""
"3417","40","poldrack-single-stim","15","257502","0.0-3.11-0.11","8d6d46b6-7d39-464b-ac2f-713795060a47","","3417","0","breath_counting","","","40,39","3417","added!",""
"3127","40","poldrack-single-stim","16","260632","0.0-3.12-0.12","8d6d46b6-7d39-464b-ac2f-713795060a47","","3127","0","breath_counting","","","40,39","3127","added!",""
"3455","40","poldrack-single-stim","17","264090","0.0-3.13-0.13","8d6d46b6-7d39-464b-ac2f-713795060a47","","3455","0","breath_counting","","","40,39","3455","added!",""
"2954","40","poldrack-single-stim","18","267046","0.0-3.14-0.14","8d6d46b6-7d39-464b-ac2f-713795060a47","","2954","0","breath_counting","","","40,39","2954","added!",""
"3430","40","poldrack-single-stim","19","270479","0.0-3.15-0.15","8d6d46b6-7d39-464b-ac2f-713795060a47","","3430","0","breath_counting","","","40,39","3430","added!",""
"3090","39","poldrack-single-stim","20","273576","0.0-3.16-0.16","8d6d46b6-7d39-464b-ac2f-713795060a47","","3090","0","breath_counting","","","40,39","3090","added!",""
"2963","40","poldrack-single-stim","21","276542","0.0-3.17-0.17","8d6d46b6-7d39-464b-ac2f-713795060a47","","2963","0","breath_counting","","","40,39","2963","added!",""
"3310","40","poldrack-single-stim","22","279854","0.0-3.18-0.18","8d6d46b6-7d39-464b-ac2f-713795060a47","","3310","0","breath_counting","","","40,39","3310","added!",""
"3477","40","poldrack-single-stim","23","283333","0.0-3.19-0.19","8d6d46b6-7d39-464b-ac2f-713795060a47","","3477","0","breath_counting","","","40,39","3477","added!",""
"3007","40","poldrack-single-stim","24","286343","0.0-3.20-0.20","8d6d46b6-7d39-464b-ac2f-713795060a47","","3007","0","breath_counting","","","40,39","3007","added!",""
"3371","40","poldrack-single-stim","25","289718","0.0-3.21-0.21","8d6d46b6-7d39-464b-ac2f-713795060a47","","3371","0","breath_counting","","","40,39","3371","added!",""
"3205","40","poldrack-single-stim","26","292926","0.0-3.22-0.22","8d6d46b6-7d39-464b-ac2f-713795060a47","","3205","0","breath_counting","","","40,39","3205","added!",""
"3094","40","poldrack-single-stim","27","296023","0.0-3.23-0.23","8d6d46b6-7d39-464b-ac2f-713795060a47","","3094","0","breath_counting","","","40,39","3094","added!",""
"2951","40","poldrack-single-stim","28","298977","0.0-3.24-0.24","8d6d46b6-7d39-464b-ac2f-713795060a47","","2951","0","breath_counting","","","40,39","2951","added!",""
"2915","39","poldrack-single-stim","29","301895","0.0-3.25-0.25","8d6d46b6-7d39-464b-ac2f-713795060a47","","2915","0","breath_counting","","","40,39","2915","added!",""
"3053","40","poldrack-single-stim","30","304950","0.0-3.26-0.26","8d6d46b6-7d39-464b-ac2f-713795060a47","","3053","0","breath_counting","","","40,39","3053","added!",""
"3102","40","poldrack-single-stim","31","308055","0.0-3.27-0.27","8d6d46b6-7d39-464b-ac2f-713795060a47","","3102","0","breath_counting","","","40,39","3102","added!",""
"3294","40","poldrack-single-stim","32","311352","0.0-3.28-0.28","8d6d46b6-7d39-464b-ac2f-713795060a47","","3294","0","breath_counting","","","40,39","3294","added!",""
"3189","40","poldrack-single-stim","33","314543","0.0-3.29-0.29","8d6d46b6-7d39-464b-ac2f-713795060a47","","3189","0","breath_counting","","","40,39","3189","added!",""
"2893","40","poldrack-single-stim","34","317439","0.0-3.30-0.30","8d6d46b6-7d39-464b-ac2f-713795060a47","","2893","0","breath_counting","","","40,39","2893","added!",""
"3012","40","poldrack-single-stim","35","320454","0.0-3.31-0.31","8d6d46b6-7d39-464b-ac2f-713795060a47","","3012","0","breath_counting","","","40,39","3012","added!",""
"3233","40","poldrack-single-stim","36","323688","0.0-3.32-0.32","8d6d46b6-7d39-464b-ac2f-713795060a47","","3233","0","breath_counting","","","40,39","3233","added!",""
"3228","40","poldrack-single-stim","37","326919","0.0-3.33-0.33","8d6d46b6-7d39-464b-ac2f-713795060a47","","3228","0","breath_counting","","","40,39","3228","added!",""
"2766","39","poldrack-single-stim","38","329687","0.0-3.34-0.34","8d6d46b6-7d39-464b-ac2f-713795060a47","","2766","0","breath_counting","","","40,39","2766","added!",""
"3492","40","poldrack-single-stim","39","333181","0.0-3.35-0.35","8d6d46b6-7d39-464b-ac2f-713795060a47","","3492","0","breath_counting","","","40,39","3492","added!",""
"3097","40","poldrack-single-stim","40","336280","0.0-3.36-0.36","8d6d46b6-7d39-464b-ac2f-713795060a47","","3097","0","breath_counting","","","40,39","3097","added!",""
"3348","40","poldrack-single-stim","41","339631","0.0-3.37-0.37","8d6d46b6-7d39-464b-ac2f-713795060a47","","3348","0","breath_counting","","","40,39","3348","added!",""
"3364","40","poldrack-single-stim","42","342999","0.0-3.38-0.38","8d6d46b6-7d39-464b-ac2f-713795060a47","","3364","0","breath_counting","","","40,39","3364","added!",""
"3327","40","poldrack-single-stim","43","346328","0.0-3.39-0.39","8d6d46b6-7d39-464b-ac2f-713795060a47","","3327","0","breath_counting","","","40,39","3327","added!",""
"3124","40","poldrack-single-stim","44","349455","0.0-3.40-0.40","8d6d46b6-7d39-464b-ac2f-713795060a47","","3124","0","breath_counting","","","40,39","3124","added!",""
"3357","40","poldrack-single-stim","45","352814","0.0-3.41-0.41","8d6d46b6-7d39-464b-ac2f-713795060a47","","3357","0","breath_counting","","","40,39","3357","added!",""
"3389","40","poldrack-single-stim","46","356206","0.0-3.42-0.42","8d6d46b6-7d39-464b-ac2f-713795060a47","","3389","0","breath_counting","","","40,39","3389","added!",""
"3264","39","poldrack-single-stim","47","359472","0.0-3.43-0.43","8d6d46b6-7d39-464b-ac2f-713795060a47","","3264","0","breath_counting","","","40,39","3264","added!",""
"3142","40","poldrack-single-stim","48","362616","0.0-3.44-0.44","8d6d46b6-7d39-464b-ac2f-713795060a47","","3142","0","breath_counting","","","40,39","3142","added!",""
"3046","40","poldrack-single-stim","49","365664","0.0-3.45-0.45","8d6d46b6-7d39-464b-ac2f-713795060a47","","3046","0","breath_counting","","","40,39","3046","added!",""
"3139","40","poldrack-single-stim","50","368806","0.0-3.46-0.46","8d6d46b6-7d39-464b-ac2f-713795060a47","","3139","0","breath_counting","","","40,39","3139","added!",""
"3440","40","poldrack-single-stim","51","372249","0.0-3.47-0.47","8d6d46b6-7d39-464b-ac2f-713795060a47","","3440","0","breath_counting","","","40,39","3440","added!",""
"3243","40","poldrack-single-stim","52","375495","0.0-3.48-0.48","8d6d46b6-7d39-464b-ac2f-713795060a47","","3243","0","breath_counting","","","40,39","3243","added!",""
"2837","40","poldrack-single-stim","53","378334","0.0-3.49-0.49","8d6d46b6-7d39-464b-ac2f-713795060a47","","2837","0","breath_counting","","","40,39","2837","added!",""
"3063","40","poldrack-single-stim","54","381399","0.0-3.50-0.50","8d6d46b6-7d39-464b-ac2f-713795060a47","","3063","0","breath_counting","","","40,39","3063","added!",""
"2871","40","poldrack-single-stim","55","384273","0.0-3.51-0.51","8d6d46b6-7d39-464b-ac2f-713795060a47","","2871","0","breath_counting","","","40,39","2871","added!",""
"3049","40","poldrack-single-stim","56","387326","0.0-3.52-0.52","8d6d46b6-7d39-464b-ac2f-713795060a47","","3049","0","breath_counting","","","40,39","3049","added!",""
"3287","39","poldrack-single-stim","57","390615","0.0-3.53-0.53","8d6d46b6-7d39-464b-ac2f-713795060a47","","3287","0","breath_counting","","","40,39","3287","added!",""
"3325","40","poldrack-single-stim","58","393943","0.0-3.54-0.54","8d6d46b6-7d39-464b-ac2f-713795060a47","","3325","0","breath_counting","","","40,39","3325","added!",""
"3342","40","poldrack-single-stim","59","397288","0.0-3.55-0.55","8d6d46b6-7d39-464b-ac2f-713795060a47","","3342","0","breath_counting","","","40,39","3342","added!",""
"2813","40","poldrack-single-stim","60","400104","0.0-3.56-0.56","8d6d46b6-7d39-464b-ac2f-713795060a47","","2813","0","breath_counting","","","40,39","2813","added!",""
"3092","40","poldrack-single-stim","61","403198","0.0-3.57-0.57","8d6d46b6-7d39-464b-ac2f-713795060a47","","3092","0","breath_counting","","","40,39","3092","added!",""
"3062","40","poldrack-single-stim","62","406262","0.0-3.58-0.58","8d6d46b6-7d39-464b-ac2f-713795060a47","","3062","0","breath_counting","","","40,39","3062","added!",""
"3096","40","poldrack-single-stim","63","409361","0.0-3.59-0.59","8d6d46b6-7d39-464b-ac2f-713795060a47","","3096","0","breath_counting","","","40,39","3096","added!",""
"3058","40","poldrack-single-stim","64","412423","0.0-3.60-0.60","8d6d46b6-7d39-464b-ac2f-713795060a47","","3058","0","breath_counting","","","40,39","3058","added!",""
"2981","40","poldrack-single-stim","65","415408","0.0-3.61-0.61","8d6d46b6-7d39-464b-ac2f-713795060a47","","2981","0","breath_counting","","","40,39","2981","added!",""
"2989","40","poldrack-single-stim","66","418399","0.0-3.62-0.62","8d6d46b6-7d39-464b-ac2f-713795060a47","","2989","0","breath_counting","","","40,39","2989","added!",""
"333","39","poldrack-single-stim","67","418736","0.0-3.63-0.63","8d6d46b6-7d39-464b-ac2f-713795060a47","","333","0","breath_counting","","","40,39","333","added!",""
"3102","40","poldrack-single-stim","68","421842","0.0-3.64-0.64","8d6d46b6-7d39-464b-ac2f-713795060a47","","3102","0","breath_counting","","","40,39","3102","added!",""
"3235","40","poldrack-single-stim","69","425079","0.0-3.65-0.65","8d6d46b6-7d39-464b-ac2f-713795060a47","","3235","0","breath_counting","","","40,39","3235","added!",""
"3084","40","poldrack-single-stim","70","428167","0.0-3.66-0.66","8d6d46b6-7d39-464b-ac2f-713795060a47","","3084","0","breath_counting","","","40,39","3084","added!",""
"3059","40","poldrack-single-stim","71","431230","0.0-3.67-0.67","8d6d46b6-7d39-464b-ac2f-713795060a47","","3059","0","breath_counting","","","40,39","3059","added!",""
"3432","40","poldrack-single-stim","72","434664","0.0-3.68-0.68","8d6d46b6-7d39-464b-ac2f-713795060a47","","3432","0","breath_counting","","","40,39","3432","added!",""
"2982","40","poldrack-single-stim","73","437648","0.0-3.69-0.69","8d6d46b6-7d39-464b-ac2f-713795060a47","","2982","0","breath_counting","","","40,39","2982","added!",""
"2700","40","poldrack-single-stim","74","440351","0.0-3.70-0.70","8d6d46b6-7d39-464b-ac2f-713795060a47","","2700","0","breath_counting","","","40,39","2700","added!",""
"3020","40","poldrack-single-stim","75","443375","0.0-3.71-0.71","8d6d46b6-7d39-464b-ac2f-713795060a47","","3020","0","breath_counting","","","40,39","3020","added!",""
"3072","40","poldrack-single-stim","76","446450","0.0-3.72-0.72","8d6d46b6-7d39-464b-ac2f-713795060a47","","3072","0","breath_counting","","","40,39","3072","added!",""
"2857","39","poldrack-single-stim","77","449311","0.0-3.73-0.73","8d6d46b6-7d39-464b-ac2f-713795060a47","","2857","0","breath_counting","","","40,39","2857","added!",""
"3366","40","poldrack-single-stim","78","452680","0.0-3.74-0.74","8d6d46b6-7d39-464b-ac2f-713795060a47","","3366","0","breath_counting","","","40,39","3366","added!",""
"2812","40","poldrack-single-stim","79","455496","0.0-3.75-0.75","8d6d46b6-7d39-464b-ac2f-713795060a47","","2812","0","breath_counting","","","40,39","2812","added!",""
"2749","40","poldrack-single-stim","80","458248","0.0-3.76-0.76","8d6d46b6-7d39-464b-ac2f-713795060a47","","2749","0","breath_counting","","","40,39","2749","added!",""
"3012","40","poldrack-single-stim","81","461262","0.0-3.77-0.77","8d6d46b6-7d39-464b-ac2f-713795060a47","","3012","0","breath_counting","","","40,39","3012","added!",""
"2934","40","poldrack-single-stim","82","464199","0.0-3.78-0.78","8d6d46b6-7d39-464b-ac2f-713795060a47","","2934","0","breath_counting","","","40,39","2934","added!",""
"3040","40","poldrack-single-stim","83","467241","0.0-3.79-0.79","8d6d46b6-7d39-464b-ac2f-713795060a47","","3040","0","breath_counting","","","40,39","3040","added!",""
"2830","40","poldrack-single-stim","84","470074","0.0-3.80-0.80","8d6d46b6-7d39-464b-ac2f-713795060a47","","2830","0","breath_counting","","","40,39","2830","added!",""
"2922","40","poldrack-single-stim","85","472999","0.0-3.81-0.81","8d6d46b6-7d39-464b-ac2f-713795060a47","","2922","0","breath_counting","","","40,39","2922","added!",""
"3013","39","poldrack-single-stim","86","476016","0.0-3.82-0.82","8d6d46b6-7d39-464b-ac2f-713795060a47","","3013","0","breath_counting","","","40,39","3013","added!",""
"3077","40","poldrack-single-stim","87","479096","0.0-3.83-0.83","8d6d46b6-7d39-464b-ac2f-713795060a47","","3077","0","breath_counting","","","40,39","3077","added!",""
"3086","40","poldrack-single-stim","88","482186","0.0-3.84-0.84","8d6d46b6-7d39-464b-ac2f-713795060a47","","3086","0","breath_counting","","","40,39","3086","added!",""
"3219","40","poldrack-single-stim","89","485408","0.0-3.85-0.85","8d6d46b6-7d39-464b-ac2f-713795060a47","","3219","0","breath_counting","","","40,39","3219","added!",""
"2852","40","poldrack-single-stim","90","488263","0.0-3.86-0.86","8d6d46b6-7d39-464b-ac2f-713795060a47","","2852","0","breath_counting","","","40,39","2852","added!",""
"3254","40","poldrack-single-stim","91","491520","0.0-3.87-0.87","8d6d46b6-7d39-464b-ac2f-713795060a47","","3254","0","breath_counting","","","40,39","3254","added!",""
"3046","40","poldrack-single-stim","92","494570","0.0-3.88-0.88","8d6d46b6-7d39-464b-ac2f-713795060a47","","3046","0","breath_counting","","","40,39","3046","added!",""
"3314","40","poldrack-single-stim","93","497887","0.0-3.89-0.89","8d6d46b6-7d39-464b-ac2f-713795060a47","","3314","0","breath_counting","","","40,39","3314","added!",""
"2940","40","poldrack-single-stim","94","500831","0.0-3.90-0.90","8d6d46b6-7d39-464b-ac2f-713795060a47","","2940","0","breath_counting","","","40,39","2940","added!",""
"3149","40","poldrack-single-stim","95","503984","0.0-3.91-0.91","8d6d46b6-7d39-464b-ac2f-713795060a47","","3149","0","breath_counting","","","40,39","3149","added!",""
"2974","40","poldrack-single-stim","96","506963","0.0-3.92-0.92","8d6d46b6-7d39-464b-ac2f-713795060a47","","2974","0","breath_counting","","","40,39","2974","added!",""
"3475","40","poldrack-single-stim","97","510441","0.0-3.93-0.93","8d6d46b6-7d39-464b-ac2f-713795060a47","","3475","0","breath_counting","","","40,39","3475","added!",""
"3197","39","poldrack-single-stim","98","513640","0.0-3.94-0.94","8d6d46b6-7d39-464b-ac2f-713795060a47","","3197","0","breath_counting","","","40,39","3197","added!",""
"3004","40","poldrack-single-stim","99","516648","0.0-3.95-0.95","8d6d46b6-7d39-464b-ac2f-713795060a47","","3004","0","breath_counting","","","40,39","3004","added!",""
"3310","40","poldrack-single-stim","100","519962","0.0-3.96-0.96","8d6d46b6-7d39-464b-ac2f-713795060a47","","3310","0","breath_counting","","","40,39","3310","added!",""
"3523","40","poldrack-single-stim","101","523488","0.0-3.97-0.97","8d6d46b6-7d39-464b-ac2f-713795060a47","","3523","0","breath_counting","","","40,39","3523","added!",""
"3229","40","poldrack-single-stim","102","526720","0.0-3.98-0.98","8d6d46b6-7d39-464b-ac2f-713795060a47","","3229","0","breath_counting","","","40,39","3229","added!",""
"2989","40","poldrack-single-stim","103","529713","0.0-3.99-0.99","8d6d46b6-7d39-464b-ac2f-713795060a47","","2989","0","breath_counting","","","40,39","2989","added!",""
"2813","40","poldrack-single-stim","104","532530","0.0-3.100-0.100","8d6d46b6-7d39-464b-ac2f-713795060a47","","2813","0","breath_counting","","","40,39","2813","added!",""
"3173","40","poldrack-single-stim","105","535705","0.0-3.101-0.101","8d6d46b6-7d39-464b-ac2f-713795060a47","","3173","0","breath_counting","","","40,39","3173","added!",""
"3059","40","poldrack-single-stim","106","538769","0.0-3.102-0.102","8d6d46b6-7d39-464b-ac2f-713795060a47","","3059","0","breath_counting","","","40,39","3059","added!",""
"2908","39","poldrack-single-stim","107","541681","0.0-3.103-0.103","8d6d46b6-7d39-464b-ac2f-713795060a47","","2908","0","breath_counting","","","40,39","2908","added!",""
"3164","40","poldrack-single-stim","108","544849","0.0-3.104-0.104","8d6d46b6-7d39-464b-ac2f-713795060a47","","3164","0","breath_counting","","","40,39","3164","added!",""
"3388","40","poldrack-single-stim","109","548241","0.0-3.105-0.105","8d6d46b6-7d39-464b-ac2f-713795060a47","","3388","0","breath_counting","","","40,39","3388","added!",""
"3099","40","poldrack-single-stim","110","551343","0.0-3.106-0.106","8d6d46b6-7d39-464b-ac2f-713795060a47","","3099","0","breath_counting","","","40,39","3099","added!",""
"3102","40","poldrack-single-stim","111","554448","0.0-3.107-0.107","8d6d46b6-7d39-464b-ac2f-713795060a47","","3102","0","breath_counting","","","40,39","3102","added!",""
"3382","40","poldrack-single-stim","112","557834","0.0-3.108-0.108","8d6d46b6-7d39-464b-ac2f-713795060a47","","3382","0","breath_counting","","","40,39","3382","added!",""
"3114","40","poldrack-single-stim","113","560952","0.0-3.109-0.109","8d6d46b6-7d39-464b-ac2f-713795060a47","","3114","0","breath_counting","","","40,39","3114","added!",""
"2932","40","poldrack-single-stim","114","563889","0.0-3.110-0.110","8d6d46b6-7d39-464b-ac2f-713795060a47","","2932","0","breath_counting","","","40,39","2932","added!",""
"3020","40","poldrack-single-stim","115","566913","0.0-3.111-0.111","8d6d46b6-7d39-464b-ac2f-713795060a47","","3020","0","breath_counting","","","40,39","3020","added!",""
"3189","39","poldrack-single-stim","116","570105","0.0-3.112-0.112","8d6d46b6-7d39-464b-ac2f-713795060a47","","3189","0","breath_counting","","","40,39","3189","added!",""
"3038","40","poldrack-single-stim","117","573145","0.0-3.113-0.113","8d6d46b6-7d39-464b-ac2f-713795060a47","","3038","0","breath_counting","","","40,39","3038","added!",""
"2987","40","poldrack-single-stim","118","576137","0.0-3.114-0.114","8d6d46b6-7d39-464b-ac2f-713795060a47","","2987","0","breath_counting","","","40,39","2987","added!",""
"3007","40","poldrack-single-stim","119","579152","0.0-3.115-0.115","8d6d46b6-7d39-464b-ac2f-713795060a47","","3007","0","breath_counting","","","40,39","3007","added!",""
"3351","40","poldrack-single-stim","120","582506","0.0-3.116-0.116","8d6d46b6-7d39-464b-ac2f-713795060a47","","3351","0","breath_counting","","","40,39","3351","added!",""
"3163","40","poldrack-single-stim","121","585673","0.0-3.117-0.117","8d6d46b6-7d39-464b-ac2f-713795060a47","","3163","0","breath_counting","","","40,39","3163","added!",""
"3204","40","poldrack-single-stim","122","588880","0.0-3.118-0.118","8d6d46b6-7d39-464b-ac2f-713795060a47","","3204","0","breath_counting","","","40,39","3204","added!",""
"3309","40","poldrack-single-stim","123","592192","0.0-3.119-0.119","8d6d46b6-7d39-464b-ac2f-713795060a47","","3309","0","breath_counting","","","40,39","3309","added!",""
"3287","40","poldrack-single-stim","124","595483","0.0-3.120-0.120","8d6d46b6-7d39-464b-ac2f-713795060a47","","3287","0","breath_counting","","","40,39","3287","added!",""
"3138","40","poldrack-single-stim","125","598625","0.0-3.121-0.121","8d6d46b6-7d39-464b-ac2f-713795060a47","","3138","0","breath_counting","","","40,39","3138","added!",""
"3237","40","poldrack-single-stim","126","601866","0.0-3.122-0.122","8d6d46b6-7d39-464b-ac2f-713795060a47","","3237","0","breath_counting","","","40,39","3237","added!",""
"1147","39","poldrack-single-stim","127","603017","0.0-3.123-0.123","8d6d46b6-7d39-464b-ac2f-713795060a47","","1147","0","breath_counting","","","40,39","1147","added!",""
"3244","40","poldrack-single-stim","128","606267","0.0-3.124-0.124","8d6d46b6-7d39-464b-ac2f-713795060a47","","3244","0","breath_counting","","","40,39","3244","added!",""
"3291","40","poldrack-single-stim","129","609562","0.0-3.125-0.125","8d6d46b6-7d39-464b-ac2f-713795060a47","","3291","0","breath_counting","","","40,39","3291","added!",""
"2746","40","poldrack-single-stim","130","612313","0.0-3.126-0.126","8d6d46b6-7d39-464b-ac2f-713795060a47","","2746","0","breath_counting","","","40,39","2746","added!",""
"3068","40","poldrack-single-stim","131","615385","0.0-3.127-0.127","8d6d46b6-7d39-464b-ac2f-713795060a47","","3068","0","breath_counting","","","40,39","3068","added!",""
"2966","40","poldrack-single-stim","132","618354","0.0-3.128-0.128","8d6d46b6-7d39-464b-ac2f-713795060a47","","2966","0","breath_counting","","","40,39","2966","added!",""
"2948","40","poldrack-single-stim","133","621305","0.0-3.129-0.129","8d6d46b6-7d39-464b-ac2f-713795060a47","","2948","0","breath_counting","","","40,39","2948","added!",""
"2924","40","poldrack-single-stim","134","624233","0.0-3.130-0.130","8d6d46b6-7d39-464b-ac2f-713795060a47","","2924","0","breath_counting","","","40,39","2924","added!",""
"2915","40","poldrack-single-stim","135","627153","0.0-3.131-0.131","8d6d46b6-7d39-464b-ac2f-713795060a47","","2915","0","breath_counting","","","40,39","2915","added!",""
"2981","40","poldrack-single-stim","136","630139","0.0-3.132-0.132","8d6d46b6-7d39-464b-ac2f-713795060a47","","2981","0","breath_counting","","","40,39","2981","added!",""
"2937","39","poldrack-single-stim","137","633081","0.0-3.133-0.133","8d6d46b6-7d39-464b-ac2f-713795060a47","","2937","0","breath_counting","","","40,39","2937","added!",""
"3066","40","poldrack-single-stim","138","636154","0.0-3.134-0.134","8d6d46b6-7d39-464b-ac2f-713795060a47","","3066","0","breath_counting","","","40,39","3066","added!",""
"2932","40","poldrack-single-stim","139","639089","0.0-3.135-0.135","8d6d46b6-7d39-464b-ac2f-713795060a47","","2932","0","breath_counting","","","40,39","2932","added!",""
"3268","40","poldrack-single-stim","140","642362","0.0-3.136-0.136","8d6d46b6-7d39-464b-ac2f-713795060a47","","3268","0","breath_counting","","","40,39","3268","added!",""
"3098","40","poldrack-single-stim","141","645465","0.0-3.137-0.137","8d6d46b6-7d39-464b-ac2f-713795060a47","","3098","0","breath_counting","","","40,39","3098","added!",""
"3661","40","poldrack-single-stim","142","649129","0.0-3.138-0.138","8d6d46b6-7d39-464b-ac2f-713795060a47","","3661","0","breath_counting","","","40,39","3661","added!",""
"3334","40","poldrack-single-stim","143","652466","0.0-3.139-0.139","8d6d46b6-7d39-464b-ac2f-713795060a47","","3334","0","breath_counting","","","40,39","3334","added!",""
"2788","40","poldrack-single-stim","144","655257","0.0-3.140-0.140","8d6d46b6-7d39-464b-ac2f-713795060a47","","2788","0","breath_counting","","","40,39","2788","added!",""
"3588","40","poldrack-single-stim","145","658849","0.0-3.141-0.141","8d6d46b6-7d39-464b-ac2f-713795060a47","","3588","0","breath_counting","","","40,39","3588","added!",""
"4095","40","poldrack-single-stim","146","662948","0.0-3.142-0.142","8d6d46b6-7d39-464b-ac2f-713795060a47","","4095","0","breath_counting","","","40,39","4095","added!",""
"3305","40","poldrack-single-stim","147","666258","0.0-3.143-0.143","8d6d46b6-7d39-464b-ac2f-713795060a47","","3305","0","breath_counting","","","40,39","3305","added!",""
"2900","39","poldrack-single-stim","148","669162","0.0-3.144-0.144","8d6d46b6-7d39-464b-ac2f-713795060a47","","2900","0","breath_counting","","","40,39","2900","added!",""
"2749","40","poldrack-single-stim","149","671913","0.0-3.145-0.145","8d6d46b6-7d39-464b-ac2f-713795060a47","","2749","0","breath_counting","","","40,39","2749","added!",""
"3182","40","poldrack-single-stim","150","675100","0.0-3.146-0.146","8d6d46b6-7d39-464b-ac2f-713795060a47","","3182","0","breath_counting","","","40,39","3182","added!",""
"3996","40","poldrack-single-stim","151","679098","0.0-3.147-0.147","8d6d46b6-7d39-464b-ac2f-713795060a47","","3996","0","breath_counting","","","40,39","3996","added!",""
"3252","40","poldrack-single-stim","152","682353","0.0-3.148-0.148","8d6d46b6-7d39-464b-ac2f-713795060a47","","3252","0","breath_counting","","","40,39","3252","added!",""
"2910","40","poldrack-single-stim","153","685268","0.0-3.149-0.149","8d6d46b6-7d39-464b-ac2f-713795060a47","","2910","0","breath_counting","","","40,39","2910","added!",""
"2897","40","poldrack-single-stim","154","688169","0.0-3.150-0.150","8d6d46b6-7d39-464b-ac2f-713795060a47","","2897","0","breath_counting","","","40,39","2897","added!",""
"2949","40","poldrack-single-stim","155","691122","0.0-3.151-0.151","8d6d46b6-7d39-464b-ac2f-713795060a47","","2949","0","breath_counting","","","40,39","2949","added!",""
"3380","40","poldrack-single-stim","156","694505","0.0-3.152-0.152","8d6d46b6-7d39-464b-ac2f-713795060a47","","3380","0","breath_counting","","","40,39","3380","added!",""
"3207","40","poldrack-single-stim","157","697716","0.0-3.153-0.153","8d6d46b6-7d39-464b-ac2f-713795060a47","","3207","0","breath_counting","","","40,39","3207","added!",""
"2801","40","poldrack-single-stim","158","700521","0.0-3.154-0.154","8d6d46b6-7d39-464b-ac2f-713795060a47","","2801","0","breath_counting","","","40,39","2801","added!",""
"2948","39","poldrack-single-stim","159","703473","0.0-3.155-0.155","8d6d46b6-7d39-464b-ac2f-713795060a47","","2948","0","breath_counting","","","40,39","2948","added!",""
"3117","40","poldrack-single-stim","160","706594","0.0-3.156-0.156","8d6d46b6-7d39-464b-ac2f-713795060a47","","3117","0","breath_counting","","","40,39","3117","added!",""
"5149","40","poldrack-single-stim","161","711748","0.0-3.157-0.157","8d6d46b6-7d39-464b-ac2f-713795060a47","","5149","0","breath_counting","","","40,39","5149","added!",""
"3890","40","poldrack-single-stim","162","715642","0.0-3.158-0.158","8d6d46b6-7d39-464b-ac2f-713795060a47","","3890","0","breath_counting","","","40,39","3890","added!",""
"3507","40","poldrack-single-stim","163","719154","0.0-3.159-0.159","8d6d46b6-7d39-464b-ac2f-713795060a47","","3507","0","breath_counting","","","40,39","3507","added!",""
"3699","40","poldrack-single-stim","164","722860","0.0-3.160-0.160","8d6d46b6-7d39-464b-ac2f-713795060a47","","3699","0","breath_counting","","","40,39","3699","added!",""
"3307","40","poldrack-single-stim","165","726170","0.0-3.161-0.161","8d6d46b6-7d39-464b-ac2f-713795060a47","","3307","0","breath_counting","","","40,39","3307","added!",""
"3795","40","poldrack-single-stim","166","729970","0.0-3.162-0.162","8d6d46b6-7d39-464b-ac2f-713795060a47","","3795","0","breath_counting","","","40,39","3795","added!",""
"3757","40","poldrack-single-stim","167","733732","0.0-3.163-0.163","8d6d46b6-7d39-464b-ac2f-713795060a47","","3757","0","breath_counting","","","40,39","3757","added!",""
"3665","39","poldrack-single-stim","168","737402","0.0-3.164-0.164","8d6d46b6-7d39-464b-ac2f-713795060a47","","3665","0","breath_counting","","","40,39","3665","added!",""
"3483","40","poldrack-single-stim","169","740891","0.0-3.165-0.165","8d6d46b6-7d39-464b-ac2f-713795060a47","","3483","0","breath_counting","","","40,39","3483","added!",""
"3693","40","poldrack-single-stim","170","744587","0.0-3.166-0.166","8d6d46b6-7d39-464b-ac2f-713795060a47","","3693","0","breath_counting","","","40,39","3693","added!",""
"3315","40","poldrack-single-stim","171","747906","0.0-3.167-0.167","8d6d46b6-7d39-464b-ac2f-713795060a47","","3315","0","breath_counting","","","40,39","3315","added!",""
"3268","40","poldrack-single-stim","172","751178","0.0-3.168-0.168","8d6d46b6-7d39-464b-ac2f-713795060a47","","3268","0","breath_counting","","","40,39","3268","added!",""
"3236","40","poldrack-single-stim","173","754418","0.0-3.169-0.169","8d6d46b6-7d39-464b-ac2f-713795060a47","","3236","0","breath_counting","","","40,39","3236","added!",""
"2998","40","poldrack-single-stim","174","757421","0.0-3.170-0.170","8d6d46b6-7d39-464b-ac2f-713795060a47","","2998","0","breath_counting","","","40,39","2998","added!",""
"3297","40","poldrack-single-stim","175","760722","0.0-3.171-0.171","8d6d46b6-7d39-464b-ac2f-713795060a47","","3297","0","breath_counting","","","40,39","3297","added!",""
"3020","40","poldrack-single-stim","176","763747","0.0-3.172-0.172","8d6d46b6-7d39-464b-ac2f-713795060a47","","3020","0","breath_counting","","","40,39","3020","added!",""
"3164","40","poldrack-single-stim","177","766915","0.0-3.173-0.173","8d6d46b6-7d39-464b-ac2f-713795060a47","","3164","0","breath_counting","","","40,39","3164","added!",""
"3206","39","poldrack-single-stim","178","770124","0.0-3.174-0.174","8d6d46b6-7d39-464b-ac2f-713795060a47","","3206","0","breath_counting","","","40,39","3206","added!",""
"5634","40","poldrack-single-stim","179","775763","0.0-3.175-0.175","8d6d46b6-7d39-464b-ac2f-713795060a47","","5634","0","breath_counting","","","40,39","5634","added!",""
"3433","40","poldrack-single-stim","180","779202","0.0-3.176-0.176","8d6d46b6-7d39-464b-ac2f-713795060a47","","3433","0","breath_counting","","","40,39","3433","added!",""
"3135","40","poldrack-single-stim","181","782340","0.0-3.177-0.177","8d6d46b6-7d39-464b-ac2f-713795060a47","","3135","0","breath_counting","","","40,39","3135","added!",""
"2882","40","poldrack-single-stim","182","785227","0.0-3.178-0.178","8d6d46b6-7d39-464b-ac2f-713795060a47","","2882","0","breath_counting","","","40,39","2882","added!",""
"2987","40","poldrack-single-stim","183","788219","0.0-3.179-0.179","8d6d46b6-7d39-464b-ac2f-713795060a47","","2987","0","breath_counting","","","40,39","2987","added!",""
"2883","40","poldrack-single-stim","184","791107","0.0-3.180-0.180","8d6d46b6-7d39-464b-ac2f-713795060a47","","2883","0","breath_counting","","","40,39","2883","added!",""
"2924","40","poldrack-single-stim","185","794037","0.0-3.181-0.181","8d6d46b6-7d39-464b-ac2f-713795060a47","","2924","0","breath_counting","","","40,39","2924","added!",""
"2768","40","poldrack-single-stim","186","796810","0.0-3.182-0.182","8d6d46b6-7d39-464b-ac2f-713795060a47","","2768","0","breath_counting","","","40,39","2768","added!",""
"2972","39","poldrack-single-stim","187","799787","0.0-3.183-0.183","8d6d46b6-7d39-464b-ac2f-713795060a47","","2972","0","breath_counting","","","40,39","2972","added!",""
"3243","40","poldrack-single-stim","188","803035","0.0-3.184-0.184","8d6d46b6-7d39-464b-ac2f-713795060a47","","3243","0","breath_counting","","","40,39","3243","added!",""
"3052","40","poldrack-single-stim","189","806092","0.0-3.185-0.185","8d6d46b6-7d39-464b-ac2f-713795060a47","","3052","0","breath_counting","","","40,39","3052","added!",""
"3218","40","poldrack-single-stim","190","809314","0.0-3.186-0.186","8d6d46b6-7d39-464b-ac2f-713795060a47","","3218","0","breath_counting","","","40,39","3218","added!",""
"3098","40","poldrack-single-stim","191","812416","0.0-3.187-0.187","8d6d46b6-7d39-464b-ac2f-713795060a47","","3098","0","breath_counting","","","40,39","3098","added!",""
"3272","40","poldrack-single-stim","192","815691","0.0-3.188-0.188","8d6d46b6-7d39-464b-ac2f-713795060a47","","3272","0","breath_counting","","","40,39","3272","added!",""
"3044","40","poldrack-single-stim","193","818739","0.0-3.189-0.189","8d6d46b6-7d39-464b-ac2f-713795060a47","","3044","0","breath_counting","","","40,39","3044","added!",""
"3198","40","poldrack-single-stim","194","821939","0.0-3.190-0.190","8d6d46b6-7d39-464b-ac2f-713795060a47","","3198","0","breath_counting","","","40,39","3198","added!",""
"3057","40","poldrack-single-stim","195","825002","0.0-3.191-0.191","8d6d46b6-7d39-464b-ac2f-713795060a47","","3057","0","breath_counting","","","40,39","3057","added!",""
"3132","39","poldrack-single-stim","196","828139","0.0-3.192-0.192","8d6d46b6-7d39-464b-ac2f-713795060a47","","3132","0","breath_counting","","","40,39","3132","added!",""
"2653","40","poldrack-single-stim","197","830797","0.0-3.193-0.193","8d6d46b6-7d39-464b-ac2f-713795060a47","","2653","0","breath_counting","","","40,39","2653","added!",""
"3204","40","poldrack-single-stim","198","834002","0.0-3.194-0.194","8d6d46b6-7d39-464b-ac2f-713795060a47","","3204","0","breath_counting","","","40,39","3204","added!",""
"3076","40","poldrack-single-stim","199","837083","0.0-3.195-0.195","8d6d46b6-7d39-464b-ac2f-713795060a47","","3076","0","breath_counting","","","40,39","3076","added!",""
"2868","40","poldrack-single-stim","200","839955","0.0-3.196-0.196","8d6d46b6-7d39-464b-ac2f-713795060a47","","2868","0","breath_counting","","","40,39","2868","added!",""
"2870","40","poldrack-single-stim","201","842829","0.0-3.197-0.197","8d6d46b6-7d39-464b-ac2f-713795060a47","","2870","0","breath_counting","","","40,39","2870","added!",""
"2985","40","poldrack-single-stim","202","845818","0.0-3.198-0.198","8d6d46b6-7d39-464b-ac2f-713795060a47","","2985","0","breath_counting","","","40,39","2985","added!",""
"2661","40","poldrack-single-stim","203","848483","0.0-3.199-0.199","8d6d46b6-7d39-464b-ac2f-713795060a47","","2661","0","breath_counting","","","40,39","2661","added!",""
"2833","40","poldrack-single-stim","204","851323","0.0-3.200-0.200","8d6d46b6-7d39-464b-ac2f-713795060a47","","2833","0","breath_counting","","","40,39","2833","added!",""
"2742","40","poldrack-single-stim","205","854069","0.0-3.201-0.201","8d6d46b6-7d39-464b-ac2f-713795060a47","","2742","0","breath_counting","","","40,39","2742","added!",""
"2977","39","poldrack-single-stim","206","857052","0.0-3.202-0.202","8d6d46b6-7d39-464b-ac2f-713795060a47","","2977","0","breath_counting","","","40,39","2977","added!",""
"2891","40","poldrack-single-stim","207","859948","0.0-3.203-0.203","8d6d46b6-7d39-464b-ac2f-713795060a47","","2891","0","breath_counting","","","40,39","2891","added!",""
"2658","40","poldrack-single-stim","208","862611","0.0-3.204-0.204","8d6d46b6-7d39-464b-ac2f-713795060a47","","2658","0","breath_counting","","","40,39","2658","added!",""
"2862","40","poldrack-single-stim","209","865478","0.0-3.205-0.205","8d6d46b6-7d39-464b-ac2f-713795060a47","","2862","0","breath_counting","","","40,39","2862","added!",""
"3104","40","poldrack-single-stim","210","868586","0.0-3.206-0.206","8d6d46b6-7d39-464b-ac2f-713795060a47","","3104","0","breath_counting","","","40,39","3104","added!",""
"3021","40","poldrack-single-stim","211","871611","0.0-3.207-0.207","8d6d46b6-7d39-464b-ac2f-713795060a47","","3021","0","breath_counting","","","40,39","3021","added!",""
"2955","40","poldrack-single-stim","212","874571","0.0-3.208-0.208","8d6d46b6-7d39-464b-ac2f-713795060a47","","2955","0","breath_counting","","","40,39","2955","added!",""
"3221","40","poldrack-single-stim","213","877797","0.0-3.209-0.209","8d6d46b6-7d39-464b-ac2f-713795060a47","","3221","0","breath_counting","","","40,39","3221","added!",""
"3264","40","poldrack-single-stim","214","881067","0.0-3.210-0.210","8d6d46b6-7d39-464b-ac2f-713795060a47","","3264","0","breath_counting","","","40,39","3264","added!",""
"3123","39","poldrack-single-stim","215","884196","0.0-3.211-0.211","8d6d46b6-7d39-464b-ac2f-713795060a47","","3123","0","breath_counting","","","40,39","3123","added!",""
"3275","40","poldrack-single-stim","216","887476","0.0-3.212-0.212","8d6d46b6-7d39-464b-ac2f-713795060a47","","3275","0","breath_counting","","","40,39","3275","added!",""
"2931","40","poldrack-single-stim","217","890413","0.0-3.213-0.213","8d6d46b6-7d39-464b-ac2f-713795060a47","","2931","0","breath_counting","","","40,39","2931","added!",""
"3115","40","poldrack-single-stim","218","893532","0.0-3.214-0.214","8d6d46b6-7d39-464b-ac2f-713795060a47","","3115","0","breath_counting","","","40,39","3115","added!",""
"3419","40","poldrack-single-stim","219","896956","0.0-3.215-0.215","8d6d46b6-7d39-464b-ac2f-713795060a47","","3419","0","breath_counting","","","40,39","3419","added!",""
"3676","40","poldrack-single-stim","220","900637","0.0-3.216-0.216","8d6d46b6-7d39-464b-ac2f-713795060a47","","3676","0","breath_counting","","","40,39","3676","added!",""
"3296","40","poldrack-single-stim","221","903940","0.0-3.217-0.217","8d6d46b6-7d39-464b-ac2f-713795060a47","","3296","0","breath_counting","","","40,39","3296","added!",""
"3435","40","poldrack-single-stim","222","907380","0.0-3.218-0.218","8d6d46b6-7d39-464b-ac2f-713795060a47","","3435","0","breath_counting","","","40,39","3435","added!",""
"3602","40","poldrack-single-stim","223","910988","0.0-3.219-0.219","8d6d46b6-7d39-464b-ac2f-713795060a47","","3602","0","breath_counting","","","40,39","3602","added!",""
"3275","39","poldrack-single-stim","224","914268","0.0-3.220-0.220","8d6d46b6-7d39-464b-ac2f-713795060a47","","3275","0","breath_counting","","","40,39","3275","added!",""
"3018","40","poldrack-single-stim","225","917292","0.0-3.221-0.221","8d6d46b6-7d39-464b-ac2f-713795060a47","","3018","0","breath_counting","","","40,39","3018","added!",""
"3250","40","poldrack-single-stim","226","920548","0.0-3.222-0.222","8d6d46b6-7d39-464b-ac2f-713795060a47","","3250","0","breath_counting","","","40,39","3250","added!",""
"3060","40","poldrack-single-stim","227","923612","0.0-3.223-0.223","8d6d46b6-7d39-464b-ac2f-713795060a47","","3060","0","breath_counting","","","40,39","3060","added!",""
"3549","40","poldrack-single-stim","228","927165","0.0-3.224-0.224","8d6d46b6-7d39-464b-ac2f-713795060a47","","3549","0","breath_counting","","","40,39","3549","added!",""
"3056","40","poldrack-single-stim","229","930228","0.0-3.225-0.225","8d6d46b6-7d39-464b-ac2f-713795060a47","","3056","0","breath_counting","","","40,39","3056","added!",""
"3058","40","poldrack-single-stim","230","933292","0.0-3.226-0.226","8d6d46b6-7d39-464b-ac2f-713795060a47","","3058","0","breath_counting","","","40,39","3058","added!",""
"3244","40","poldrack-single-stim","231","936542","0.0-3.227-0.227","8d6d46b6-7d39-464b-ac2f-713795060a47","","3244","0","breath_counting","","","40,39","3244","added!",""
"2920","40","poldrack-single-stim","232","939467","0.0-3.228-0.228","8d6d46b6-7d39-464b-ac2f-713795060a47","","2920","0","breath_counting","","","40,39","2920","added!",""
"3186","39","poldrack-single-stim","233","942659","0.0-3.229-0.229","8d6d46b6-7d39-464b-ac2f-713795060a47","","3186","0","breath_counting","","","40,39","3186","added!",""
"3325","40","poldrack-single-stim","234","945989","0.0-3.230-0.230","8d6d46b6-7d39-464b-ac2f-713795060a47","","3325","0","breath_counting","","","40,39","3325","added!",""
"2944","40","poldrack-single-stim","235","948941","0.0-3.231-0.231","8d6d46b6-7d39-464b-ac2f-713795060a47","","2944","0","breath_counting","","","40,39","2944","added!",""
"2907","40","poldrack-single-stim","236","951852","0.0-3.232-0.232","8d6d46b6-7d39-464b-ac2f-713795060a47","","2907","0","breath_counting","","","40,39","2907","added!",""
"3075","40","poldrack-single-stim","237","954933","0.0-3.233-0.233","8d6d46b6-7d39-464b-ac2f-713795060a47","","3075","0","breath_counting","","","40,39","3075","added!",""
"3282","40","poldrack-single-stim","238","958220","0.0-3.234-0.234","8d6d46b6-7d39-464b-ac2f-713795060a47","","3282","0","breath_counting","","","40,39","3282","added!",""
"3132","40","poldrack-single-stim","239","961358","0.0-3.235-0.235","8d6d46b6-7d39-464b-ac2f-713795060a47","","3132","0","breath_counting","","","40,39","3132","added!",""
"3287","40","poldrack-single-stim","240","964651","0.0-3.236-0.236","8d6d46b6-7d39-464b-ac2f-713795060a47","","3287","0","breath_counting","","","40,39","3287","added!",""
"2933","40","poldrack-single-stim","241","967589","0.0-3.237-0.237","8d6d46b6-7d39-464b-ac2f-713795060a47","","2933","0","breath_counting","","","40,39","2933","added!",""
"3337","39","poldrack-single-stim","242","970932","0.0-3.238-0.238","8d6d46b6-7d39-464b-ac2f-713795060a47","","3337","0","breath_counting","","","40,39","3337","added!",""
"3044","40","poldrack-single-stim","243","973982","0.0-3.239-0.239","8d6d46b6-7d39-464b-ac2f-713795060a47","","3044","0","breath_counting","","","40,39","3044","added!",""
"3009","40","poldrack-single-stim","244","976997","0.0-3.240-0.240","8d6d46b6-7d39-464b-ac2f-713795060a47","","3009","0","breath_counting","","","40,39","3009","added!",""
"2960","40","poldrack-single-stim","245","979965","0.0-3.241-0.241","8d6d46b6-7d39-464b-ac2f-713795060a47","","2960","0","breath_counting","","","40,39","2960","added!",""
"3123","40","poldrack-single-stim","246","983092","0.0-3.242-0.242","8d6d46b6-7d39-464b-ac2f-713795060a47","","3123","0","breath_counting","","","40,39","3123","added!",""
"3166","40","poldrack-single-stim","247","986263","0.0-3.243-0.243","8d6d46b6-7d39-464b-ac2f-713795060a47","","3166","0","breath_counting","","","40,39","3166","added!",""
"3366","40","poldrack-single-stim","248","989635","0.0-3.244-0.244","8d6d46b6-7d39-464b-ac2f-713795060a47","","3366","0","breath_counting","","","40,39","3366","added!",""
"2852","40","poldrack-single-stim","249","992492","0.0-3.245-0.245","8d6d46b6-7d39-464b-ac2f-713795060a47","","2852","0","breath_counting","","","40,39","2852","added!",""
"2570","40","poldrack-single-stim","250","995069","0.0-3.246-0.246","8d6d46b6-7d39-464b-ac2f-713795060a47","","2570","0","breath_counting","","","40,39","2570","added!",""
"3028","39","poldrack-single-stim","251","998102","0.0-3.247-0.247","8d6d46b6-7d39-464b-ac2f-713795060a47","","3028","0","breath_counting","","","40,39","3028","added!",""
"2896","40","poldrack-single-stim","252","1001005","0.0-3.248-0.248","8d6d46b6-7d39-464b-ac2f-713795060a47","","2896","0","breath_counting","","","40,39","2896","added!",""
"2771","40","poldrack-single-stim","253","1003780","0.0-3.249-0.249","8d6d46b6-7d39-464b-ac2f-713795060a47","","2771","0","breath_counting","","","40,39","2771","added!",""
"2602","40","poldrack-single-stim","254","1006389","0.0-3.250-0.250","8d6d46b6-7d39-464b-ac2f-713795060a47","","2602","0","breath_counting","","","40,39","2602","added!",""
"3035","40","poldrack-single-stim","255","1009429","0.0-3.251-0.251","8d6d46b6-7d39-464b-ac2f-713795060a47","","3035","0","breath_counting","","","40,39","3035","added!",""
"3388","40","poldrack-single-stim","256","1012820","0.0-3.252-0.252","8d6d46b6-7d39-464b-ac2f-713795060a47","","3388","0","breath_counting","","","40,39","3388","added!",""
"2812","40","poldrack-single-stim","257","1015637","0.0-3.253-0.253","8d6d46b6-7d39-464b-ac2f-713795060a47","","2812","0","breath_counting","","","40,39","2812","added!",""
"2913","40","poldrack-single-stim","258","1018557","0.0-3.254-0.254","8d6d46b6-7d39-464b-ac2f-713795060a47","","2913","0","breath_counting","","","40,39","2913","added!",""
"2755","40","poldrack-single-stim","259","1021318","0.0-3.255-0.255","8d6d46b6-7d39-464b-ac2f-713795060a47","","2755","0","breath_counting","","","40,39","2755","added!",""
"3058","39","poldrack-single-stim","260","1024381","0.0-3.256-0.256","8d6d46b6-7d39-464b-ac2f-713795060a47","","3058","0","breath_counting","","","40,39","3058","added!",""
"3089","40","poldrack-single-stim","261","1027476","0.0-3.257-0.257","8d6d46b6-7d39-464b-ac2f-713795060a47","","3089","0","breath_counting","","","40,39","3089","added!",""
"2898","40","poldrack-single-stim","262","1030380","0.0-3.258-0.258","8d6d46b6-7d39-464b-ac2f-713795060a47","","2898","0","breath_counting","","","40,39","2898","added!",""
"2933","40","poldrack-single-stim","263","1033318","0.0-3.259-0.259","8d6d46b6-7d39-464b-ac2f-713795060a47","","2933","0","breath_counting","","","40,39","2933","added!",""
"3074","40","poldrack-single-stim","264","1036396","0.0-3.260-0.260","8d6d46b6-7d39-464b-ac2f-713795060a47","","3074","0","breath_counting","","","40,39","3074","added!",""
"3091","40","poldrack-single-stim","265","1039493","0.0-3.261-0.261","8d6d46b6-7d39-464b-ac2f-713795060a47","","3091","0","breath_counting","","","40,39","3091","added!",""
"2992","40","poldrack-single-stim","266","1042493","0.0-3.262-0.262","8d6d46b6-7d39-464b-ac2f-713795060a47","","2992","0","breath_counting","","","40,39","2992","added!",""
"2756","40","poldrack-single-stim","267","1045254","0.0-3.263-0.263","8d6d46b6-7d39-464b-ac2f-713795060a47","","2756","0","breath_counting","","","40,39","2756","added!",""
"2761","40","poldrack-single-stim","268","1048021","0.0-3.264-0.264","8d6d46b6-7d39-464b-ac2f-713795060a47","","2761","0","breath_counting","","","40,39","2761","added!",""
"2993","39","poldrack-single-stim","269","1051020","0.0-3.265-0.265","8d6d46b6-7d39-464b-ac2f-713795060a47","","2993","0","breath_counting","","","40,39","2993","added!",""
"2922","40","poldrack-single-stim","270","1053949","0.0-3.266-0.266","8d6d46b6-7d39-464b-ac2f-713795060a47","","2922","0","breath_counting","","","40,39","2922","added!",""
"3003","40","poldrack-single-stim","271","1056959","0.0-3.267-0.267","8d6d46b6-7d39-464b-ac2f-713795060a47","","3003","0","breath_counting","","","40,39","3003","added!",""
"3560","40","poldrack-single-stim","272","1060525","0.0-3.268-0.268","8d6d46b6-7d39-464b-ac2f-713795060a47","","3560","0","breath_counting","","","40,39","3560","added!",""
"2945","40","poldrack-single-stim","273","1063477","0.0-3.269-0.269","8d6d46b6-7d39-464b-ac2f-713795060a47","","2945","0","breath_counting","","","40,39","2945","added!",""
"2882","40","poldrack-single-stim","274","1066365","0.0-3.270-0.270","8d6d46b6-7d39-464b-ac2f-713795060a47","","2882","0","breath_counting","","","40,39","2882","added!",""
"3044","40","poldrack-single-stim","275","1069415","0.0-3.271-0.271","8d6d46b6-7d39-464b-ac2f-713795060a47","","3044","0","breath_counting","","","40,39","3044","added!",""
"2926","40","poldrack-single-stim","276","1072348","0.0-3.272-0.272","8d6d46b6-7d39-464b-ac2f-713795060a47","","2926","0","breath_counting","","","40,39","2926","added!",""
"3020","40","poldrack-single-stim","277","1075374","0.0-3.273-0.273","8d6d46b6-7d39-464b-ac2f-713795060a47","","3020","0","breath_counting","","","40,39","3020","added!",""
"3113","39","poldrack-single-stim","278","1078492","0.0-3.274-0.274","8d6d46b6-7d39-464b-ac2f-713795060a47","","3113","0","breath_counting","","","40,39","3113","added!",""
"2959","40","poldrack-single-stim","279","1081455","0.0-3.275-0.275","8d6d46b6-7d39-464b-ac2f-713795060a47","","2959","0","breath_counting","","","40,39","2959","added!",""
"3261","40","poldrack-single-stim","280","1084724","0.0-3.276-0.276","8d6d46b6-7d39-464b-ac2f-713795060a47","","3261","0","breath_counting","","","40,39","3261","added!",""
"2884","40","poldrack-single-stim","281","1087613","0.0-3.277-0.277","8d6d46b6-7d39-464b-ac2f-713795060a47","","2884","0","breath_counting","","","40,39","2884","added!",""
"2915","40","poldrack-single-stim","282","1090533","0.0-3.278-0.278","8d6d46b6-7d39-464b-ac2f-713795060a47","","2915","0","breath_counting","","","40,39","2915","added!",""
"3164","40","poldrack-single-stim","283","1093705","0.0-3.279-0.279","8d6d46b6-7d39-464b-ac2f-713795060a47","","3164","0","breath_counting","","","40,39","3164","added!",""
"3112","40","poldrack-single-stim","284","1096822","0.0-3.280-0.280","8d6d46b6-7d39-464b-ac2f-713795060a47","","3112","0","breath_counting","","","40,39","3112","added!",""
"3133","40","poldrack-single-stim","285","1099961","0.0-3.281-0.281","8d6d46b6-7d39-464b-ac2f-713795060a47","","3133","0","breath_counting","","","40,39","3133","added!",""
"2854","40","poldrack-single-stim","286","1102821","0.0-3.282-0.282","8d6d46b6-7d39-464b-ac2f-713795060a47","","2854","0","breath_counting","","","40,39","2854","added!",""
"2846","39","poldrack-single-stim","287","1105672","0.0-3.283-0.283","8d6d46b6-7d39-464b-ac2f-713795060a47","","2846","0","breath_counting","","","40,39","2846","added!",""
"2967","40","poldrack-single-stim","288","1108645","0.0-3.284-0.284","8d6d46b6-7d39-464b-ac2f-713795060a47","","2967","0","breath_counting","","","40,39","2967","added!",""
"2810","40","poldrack-single-stim","289","1111462","0.0-3.285-0.285","8d6d46b6-7d39-464b-ac2f-713795060a47","","2810","0","breath_counting","","","40,39","2810","added!",""
"2817","40","poldrack-single-stim","290","1114286","0.0-3.286-0.286","8d6d46b6-7d39-464b-ac2f-713795060a47","","2817","0","breath_counting","","","40,39","2817","added!",""
"2819","40","poldrack-single-stim","291","1117110","0.0-3.287-0.287","8d6d46b6-7d39-464b-ac2f-713795060a47","","2819","0","breath_counting","","","40,39","2819","added!",""
"2597","40","poldrack-single-stim","292","1119710","0.0-3.288-0.288","8d6d46b6-7d39-464b-ac2f-713795060a47","","2597","0","breath_counting","","","40,39","2597","added!",""
"","","call-function","293","1119715","0.0-4.0","8d6d46b6-7d39-464b-ac2f-713795060a47","","","","","","","","","",""
"8683","13","poldrack-text","294","1128399","0.0-5.0","8d6d46b6-7d39-464b-ac2f-713795060a47","<div class = centerbox><p class = center-block-text>Great job and thank you! You are now finished with this part of the study.</p><p class = center-block-text>Press <strong>enter</strong> to continue.</p></div>","8683","0","end","","","","","","breath_counting_task"
"1165","13","text","295","1129566","0.0-6.0","8d6d46b6-7d39-464b-ac2f-713795060a47","","","","","","","","","",""
