"rt","key_press","trial_type","trial_index","time_elapsed","internal_node_id","subject","text","block_duration","timing_post_trial","trial_id","view_history","stimulus","possible_responses","stim_duration","addingOnTrial","exp_id"
"786","13","text","0","791","0.0-0.0","a7b10467-7644-40e0-ad88-bb64c46909b1","","","","","","","","","",""
"845","13","poldrack-text","1","2641","0.0-1.0-0.0","a7b10467-7644-40e0-ad88-bb64c46909b1","<div class = centerbox><p class = center-block-text>Welcome to the experiment. Press <strong>enter</strong> to begin.</p></div>","845","0","instruction","","","","","",""
"161968","","poldrack-instructions","2","164611","0.0-1.0-1.0","a7b10467-7644-40e0-ad88-bb64c46909b1","","","","instruction","[{""page_index"":0,""viewing_time"":37735},{""page_index"":1,""viewing_time"":8942},{""page_index"":2,""viewing_time"":72408},{""page_index"":3,""viewing_time"":42881}]","","","","",""
"7605","40","poldrack-single-stim","3","172723","0.0-2.0","a7b10467-7644-40e0-ad88-bb64c46909b1","","7605","0","breath_counting","","<div class=centerbox><p class = center-block-text>Place your attention on the breath.</p><p class = center-block-text>Press the down arrow after your first exhale as you count ""one"", then close your eyes and continue counting breaths and pressing the correct arrow key.</p></div>","40,39","7605","added!",""
"2925","40","poldrack-single-stim","4","175651","0.0-3.0-0.0","a7b10467-7644-40e0-ad88-bb64c46909b1","","2925","0","breath_counting","","","40,39","2925","added!",""
"3929","40","poldrack-single-stim","5","179585","0.0-3.1-0.1","a7b10467-7644-40e0-ad88-bb64c46909b1","","3929","0","breath_counting","","","40,39","3929","added!",""
"3525","40","poldrack-single-stim","6","183113","0.0-3.2-0.2","a7b10467-7644-40e0-ad88-bb64c46909b1","","3525","0","breath_counting","","","40,39","3525","added!",""
"3303","40","poldrack-single-stim","7","186418","0.0-3.3-0.3","a7b10467-7644-40e0-ad88-bb64c46909b1","","3303","0","breath_counting","","","40,39","3303","added!",""
"3087","40","poldrack-single-stim","8","189505","0.0-3.4-0.4","a7b10467-7644-40e0-ad88-bb64c46909b1","","3087","0","breath_counting","","","40,39","3087","added!",""
"2822","40","poldrack-single-stim","9","192330","0.0-3.5-0.5","a7b10467-7644-40e0-ad88-bb64c46909b1","","2822","0","breath_counting","","","40,39","2822","added!",""
"3148","40","poldrack-single-stim","10","195481","0.0-3.6-0.6","a7b10467-7644-40e0-ad88-bb64c46909b1","","3148","0","breath_counting","","","40,39","3148","added!",""
"2927","39","poldrack-single-stim","11","198411","0.0-3.7-0.7","a7b10467-7644-40e0-ad88-bb64c46909b1","","2927","0","breath_counting","","","40,39","2927","added!",""
"2757","40","poldrack-single-stim","12","201170","0.0-3.8-0.8","a7b10467-7644-40e0-ad88-bb64c46909b1","","2757","0","breath_counting","","","40,39","2757","added!",""
"3149","40","poldrack-single-stim","13","204321","0.0-3.9-0.9","a7b10467-7644-40e0-ad88-bb64c46909b1","","3149","0","breath_counting","","","40,39","3149","added!",""
"2725","40","poldrack-single-stim","14","207049","0.0-3.10-0.10","a7b10467-7644-40e0-ad88-bb64c46909b1","","2725","0","breath_counting","","","40,39","2725","added!",""
"3839","40","poldrack-single-stim","15","210891","0.0-3.11-0.11","a7b10467-7644-40e0-ad88-bb64c46909b1","","3839","0","breath_counting","","","40,39","3839","added!",""
"2988","40","poldrack-single-stim","16","213882","0.0-3.12-0.12","a7b10467-7644-40e0-ad88-bb64c46909b1","","2988","0","breath_counting","","","40,39","2988","added!",""
"3342","40","poldrack-single-stim","17","217226","0.0-3.13-0.13","a7b10467-7644-40e0-ad88-bb64c46909b1","","3342","0","breath_counting","","","40,39","3342","added!",""
"2844","40","poldrack-single-stim","18","220073","0.0-3.14-0.14","a7b10467-7644-40e0-ad88-bb64c46909b1","","2844","0","breath_counting","","","40,39","2844","added!",""
"2696","40","poldrack-single-stim","19","222771","0.0-3.15-0.15","a7b10467-7644-40e0-ad88-bb64c46909b1","","2696","0","breath_counting","","","40,39","2696","added!",""
"2528","39","poldrack-single-stim","20","225306","0.0-3.16-0.16","a7b10467-7644-40e0-ad88-bb64c46909b1","","2528","0","breath_counting","","","40,39","2528","added!",""
"3141","40","poldrack-single-stim","21","228449","0.0-3.17-0.17","a7b10467-7644-40e0-ad88-bb64c46909b1","","3141","0","breath_counting","","","40,39","3141","added!",""
"2791","40","poldrack-single-stim","22","231242","0.0-3.18-0.18","a7b10467-7644-40e0-ad88-bb64c46909b1","","2791","0","breath_counting","","","40,39","2791","added!",""
"2959","40","poldrack-single-stim","23","234204","0.0-3.19-0.19","a7b10467-7644-40e0-ad88-bb64c46909b1","","2959","0","breath_counting","","","40,39","2959","added!",""
"2364","40","poldrack-single-stim","24","236570","0.0-3.20-0.20","a7b10467-7644-40e0-ad88-bb64c46909b1","","2364","0","breath_counting","","","40,39","2364","added!",""
"2827","40","poldrack-single-stim","25","239401","0.0-3.21-0.21","a7b10467-7644-40e0-ad88-bb64c46909b1","","2827","0","breath_counting","","","40,39","2827","added!",""
"2807","40","poldrack-single-stim","26","242210","0.0-3.22-0.22","a7b10467-7644-40e0-ad88-bb64c46909b1","","2807","0","breath_counting","","","40,39","2807","added!",""
"3342","40","poldrack-single-stim","27","245555","0.0-3.23-0.23","a7b10467-7644-40e0-ad88-bb64c46909b1","","3342","0","breath_counting","","","40,39","3342","added!",""
"3853","40","poldrack-single-stim","28","249410","0.0-3.24-0.24","a7b10467-7644-40e0-ad88-bb64c46909b1","","3853","0","breath_counting","","","40,39","3853","added!",""
"3709","39","poldrack-single-stim","29","253122","0.0-3.25-0.25","a7b10467-7644-40e0-ad88-bb64c46909b1","","3709","0","breath_counting","","","40,39","3709","added!",""
"3342","40","poldrack-single-stim","30","256466","0.0-3.26-0.26","a7b10467-7644-40e0-ad88-bb64c46909b1","","3342","0","breath_counting","","","40,39","3342","added!",""
"3004","40","poldrack-single-stim","31","259473","0.0-3.27-0.27","a7b10467-7644-40e0-ad88-bb64c46909b1","","3004","0","breath_counting","","","40,39","3004","added!",""
"3024","40","poldrack-single-stim","32","262498","0.0-3.28-0.28","a7b10467-7644-40e0-ad88-bb64c46909b1","","3024","0","breath_counting","","","40,39","3024","added!",""
"2645","40","poldrack-single-stim","33","265146","0.0-3.29-0.29","a7b10467-7644-40e0-ad88-bb64c46909b1","","2645","0","breath_counting","","","40,39","2645","added!",""
"3216","40","poldrack-single-stim","34","268364","0.0-3.30-0.30","a7b10467-7644-40e0-ad88-bb64c46909b1","","3216","0","breath_counting","","","40,39","3216","added!",""
"2907","40","poldrack-single-stim","35","271274","0.0-3.31-0.31","a7b10467-7644-40e0-ad88-bb64c46909b1","","2907","0","breath_counting","","","40,39","2907","added!",""
"3302","40","poldrack-single-stim","36","274578","0.0-3.32-0.32","a7b10467-7644-40e0-ad88-bb64c46909b1","","3302","0","breath_counting","","","40,39","3302","added!",""
"2869","40","poldrack-single-stim","37","277450","0.0-3.33-0.33","a7b10467-7644-40e0-ad88-bb64c46909b1","","2869","0","breath_counting","","","40,39","2869","added!",""
"2392","39","poldrack-single-stim","38","279843","0.0-3.34-0.34","a7b10467-7644-40e0-ad88-bb64c46909b1","","2392","0","breath_counting","","","40,39","2392","added!",""
"2917","40","poldrack-single-stim","39","282762","0.0-3.35-0.35","a7b10467-7644-40e0-ad88-bb64c46909b1","","2917","0","breath_counting","","","40,39","2917","added!",""
"2685","40","poldrack-single-stim","40","285450","0.0-3.36-0.36","a7b10467-7644-40e0-ad88-bb64c46909b1","","2685","0","breath_counting","","","40,39","2685","added!",""
"3758","40","poldrack-single-stim","41","289210","0.0-3.37-0.37","a7b10467-7644-40e0-ad88-bb64c46909b1","","3758","0","breath_counting","","","40,39","3758","added!",""
"3197","40","poldrack-single-stim","42","292412","0.0-3.38-0.38","a7b10467-7644-40e0-ad88-bb64c46909b1","","3197","0","breath_counting","","","40,39","3197","added!",""
"3666","40","poldrack-single-stim","43","296081","0.0-3.39-0.39","a7b10467-7644-40e0-ad88-bb64c46909b1","","3666","0","breath_counting","","","40,39","3666","added!",""
"3055","40","poldrack-single-stim","44","299138","0.0-3.40-0.40","a7b10467-7644-40e0-ad88-bb64c46909b1","","3055","0","breath_counting","","","40,39","3055","added!",""
"3279","40","poldrack-single-stim","45","302420","0.0-3.41-0.41","a7b10467-7644-40e0-ad88-bb64c46909b1","","3279","0","breath_counting","","","40,39","3279","added!",""
"3972","40","poldrack-single-stim","46","306394","0.0-3.42-0.42","a7b10467-7644-40e0-ad88-bb64c46909b1","","3972","0","breath_counting","","","40,39","3972","added!",""
"4525","39","poldrack-single-stim","47","310922","0.0-3.43-0.43","a7b10467-7644-40e0-ad88-bb64c46909b1","","4525","0","breath_counting","","","40,39","4525","added!",""
"4528","40","poldrack-single-stim","48","315452","0.0-3.44-0.44","a7b10467-7644-40e0-ad88-bb64c46909b1","","4528","0","breath_counting","","","40,39","4528","added!",""
"3140","40","poldrack-single-stim","49","318595","0.0-3.45-0.45","a7b10467-7644-40e0-ad88-bb64c46909b1","","3140","0","breath_counting","","","40,39","3140","added!",""
"3556","40","poldrack-single-stim","50","322154","0.0-3.46-0.46","a7b10467-7644-40e0-ad88-bb64c46909b1","","3556","0","breath_counting","","","40,39","3556","added!",""
"3399","40","poldrack-single-stim","51","325555","0.0-3.47-0.47","a7b10467-7644-40e0-ad88-bb64c46909b1","","3399","0","breath_counting","","","40,39","3399","added!",""
"3125","40","poldrack-single-stim","52","328683","0.0-3.48-0.48","a7b10467-7644-40e0-ad88-bb64c46909b1","","3125","0","breath_counting","","","40,39","3125","added!",""
"3589","40","poldrack-single-stim","53","332274","0.0-3.49-0.49","a7b10467-7644-40e0-ad88-bb64c46909b1","","3589","0","breath_counting","","","40,39","3589","added!",""
"3518","40","poldrack-single-stim","54","335796","0.0-3.50-0.50","a7b10467-7644-40e0-ad88-bb64c46909b1","","3518","0","breath_counting","","","40,39","3518","added!",""
"3331","40","poldrack-single-stim","55","339130","0.0-3.51-0.51","a7b10467-7644-40e0-ad88-bb64c46909b1","","3331","0","breath_counting","","","40,39","3331","added!",""
"3036","39","poldrack-single-stim","56","342170","0.0-3.52-0.52","a7b10467-7644-40e0-ad88-bb64c46909b1","","3036","0","breath_counting","","","40,39","3036","added!",""
"2598","40","poldrack-single-stim","57","344771","0.0-3.53-0.53","a7b10467-7644-40e0-ad88-bb64c46909b1","","2598","0","breath_counting","","","40,39","2598","added!",""
"3566","40","poldrack-single-stim","58","348340","0.0-3.54-0.54","a7b10467-7644-40e0-ad88-bb64c46909b1","","3566","0","breath_counting","","","40,39","3566","added!",""
"4020","40","poldrack-single-stim","59","352363","0.0-3.55-0.55","a7b10467-7644-40e0-ad88-bb64c46909b1","","4020","0","breath_counting","","","40,39","4020","added!",""
"3430","40","poldrack-single-stim","60","355795","0.0-3.56-0.56","a7b10467-7644-40e0-ad88-bb64c46909b1","","3430","0","breath_counting","","","40,39","3430","added!",""
"3054","40","poldrack-single-stim","61","358852","0.0-3.57-0.57","a7b10467-7644-40e0-ad88-bb64c46909b1","","3054","0","breath_counting","","","40,39","3054","added!",""
"3011","40","poldrack-single-stim","62","361867","0.0-3.58-0.58","a7b10467-7644-40e0-ad88-bb64c46909b1","","3011","0","breath_counting","","","40,39","3011","added!",""
"3500","40","poldrack-single-stim","63","365370","0.0-3.59-0.59","a7b10467-7644-40e0-ad88-bb64c46909b1","","3500","0","breath_counting","","","40,39","3500","added!",""
"3014","40","poldrack-single-stim","64","368387","0.0-3.60-0.60","a7b10467-7644-40e0-ad88-bb64c46909b1","","3014","0","breath_counting","","","40,39","3014","added!",""
"2887","39","poldrack-single-stim","65","371276","0.0-3.61-0.61","a7b10467-7644-40e0-ad88-bb64c46909b1","","2887","0","breath_counting","","","40,39","2887","added!",""
"2964","40","poldrack-single-stim","66","374243","0.0-3.62-0.62","a7b10467-7644-40e0-ad88-bb64c46909b1","","2964","0","breath_counting","","","40,39","2964","added!",""
"3012","40","poldrack-single-stim","67","377259","0.0-3.63-0.63","a7b10467-7644-40e0-ad88-bb64c46909b1","","3012","0","breath_counting","","","40,39","3012","added!",""
"2490","40","poldrack-single-stim","68","379755","0.0-3.64-0.64","a7b10467-7644-40e0-ad88-bb64c46909b1","","2490","0","breath_counting","","","40,39","2490","added!",""
"3214","40","poldrack-single-stim","69","382971","0.0-3.65-0.65","a7b10467-7644-40e0-ad88-bb64c46909b1","","3214","0","breath_counting","","","40,39","3214","added!",""
"2845","40","poldrack-single-stim","70","385819","0.0-3.66-0.66","a7b10467-7644-40e0-ad88-bb64c46909b1","","2845","0","breath_counting","","","40,39","2845","added!",""
"4108","40","poldrack-single-stim","71","389931","0.0-3.67-0.67","a7b10467-7644-40e0-ad88-bb64c46909b1","","4108","0","breath_counting","","","40,39","4108","added!",""
"3166","40","poldrack-single-stim","72","393100","0.0-3.68-0.68","a7b10467-7644-40e0-ad88-bb64c46909b1","","3166","0","breath_counting","","","40,39","3166","added!",""
"3219","40","poldrack-single-stim","73","396323","0.0-3.69-0.69","a7b10467-7644-40e0-ad88-bb64c46909b1","","3219","0","breath_counting","","","40,39","3219","added!",""
"2803","39","poldrack-single-stim","74","399130","0.0-3.70-0.70","a7b10467-7644-40e0-ad88-bb64c46909b1","","2803","0","breath_counting","","","40,39","2803","added!",""
"3310","40","poldrack-single-stim","75","402442","0.0-3.71-0.71","a7b10467-7644-40e0-ad88-bb64c46909b1","","3310","0","breath_counting","","","40,39","3310","added!",""
"3328","40","poldrack-single-stim","76","405773","0.0-3.72-0.72","a7b10467-7644-40e0-ad88-bb64c46909b1","","3328","0","breath_counting","","","40,39","3328","added!",""
"2699","40","poldrack-single-stim","77","408475","0.0-3.73-0.73","a7b10467-7644-40e0-ad88-bb64c46909b1","","2699","0","breath_counting","","","40,39","2699","added!",""
"2620","40","poldrack-single-stim","78","411099","0.0-3.74-0.74","a7b10467-7644-40e0-ad88-bb64c46909b1","","2620","0","breath_counting","","","40,39","2620","added!",""
"3403","40","poldrack-single-stim","79","414507","0.0-3.75-0.75","a7b10467-7644-40e0-ad88-bb64c46909b1","","3403","0","breath_counting","","","40,39","3403","added!",""
"2990","40","poldrack-single-stim","80","417501","0.0-3.76-0.76","a7b10467-7644-40e0-ad88-bb64c46909b1","","2990","0","breath_counting","","","40,39","2990","added!",""
"3090","40","poldrack-single-stim","81","420595","0.0-3.77-0.77","a7b10467-7644-40e0-ad88-bb64c46909b1","","3090","0","breath_counting","","","40,39","3090","added!",""
"4149","40","poldrack-single-stim","82","424747","0.0-3.78-0.78","a7b10467-7644-40e0-ad88-bb64c46909b1","","4149","0","breath_counting","","","40,39","4149","added!",""
"2460","39","poldrack-single-stim","83","427211","0.0-3.79-0.79","a7b10467-7644-40e0-ad88-bb64c46909b1","","2460","0","breath_counting","","","40,39","2460","added!",""
"3086","40","poldrack-single-stim","84","430300","0.0-3.80-0.80","a7b10467-7644-40e0-ad88-bb64c46909b1","","3086","0","breath_counting","","","40,39","3086","added!",""
"2835","40","poldrack-single-stim","85","433139","0.0-3.81-0.81","a7b10467-7644-40e0-ad88-bb64c46909b1","","2835","0","breath_counting","","","40,39","2835","added!",""
"2606","40","poldrack-single-stim","86","435748","0.0-3.82-0.82","a7b10467-7644-40e0-ad88-bb64c46909b1","","2606","0","breath_counting","","","40,39","2606","added!",""
"3140","40","poldrack-single-stim","87","438892","0.0-3.83-0.83","a7b10467-7644-40e0-ad88-bb64c46909b1","","3140","0","breath_counting","","","40,39","3140","added!",""
"2813","40","poldrack-single-stim","88","441709","0.0-3.84-0.84","a7b10467-7644-40e0-ad88-bb64c46909b1","","2813","0","breath_counting","","","40,39","2813","added!",""
"2804","40","poldrack-single-stim","89","444515","0.0-3.85-0.85","a7b10467-7644-40e0-ad88-bb64c46909b1","","2804","0","breath_counting","","","40,39","2804","added!",""
"2964","40","poldrack-single-stim","90","447483","0.0-3.86-0.86","a7b10467-7644-40e0-ad88-bb64c46909b1","","2964","0","breath_counting","","","40,39","2964","added!",""
"2975","40","poldrack-single-stim","91","450460","0.0-3.87-0.87","a7b10467-7644-40e0-ad88-bb64c46909b1","","2975","0","breath_counting","","","40,39","2975","added!",""
"3071","39","poldrack-single-stim","92","453533","0.0-3.88-0.88","a7b10467-7644-40e0-ad88-bb64c46909b1","","3071","0","breath_counting","","","40,39","3071","added!",""
"3379","40","poldrack-single-stim","93","456916","0.0-3.89-0.89","a7b10467-7644-40e0-ad88-bb64c46909b1","","3379","0","breath_counting","","","40,39","3379","added!",""
"3204","40","poldrack-single-stim","94","460124","0.0-3.90-0.90","a7b10467-7644-40e0-ad88-bb64c46909b1","","3204","0","breath_counting","","","40,39","3204","added!",""
"2693","40","poldrack-single-stim","95","462819","0.0-3.91-0.91","a7b10467-7644-40e0-ad88-bb64c46909b1","","2693","0","breath_counting","","","40,39","2693","added!",""
"3158","40","poldrack-single-stim","96","465980","0.0-3.92-0.92","a7b10467-7644-40e0-ad88-bb64c46909b1","","3158","0","breath_counting","","","40,39","3158","added!",""
"3644","40","poldrack-single-stim","97","469628","0.0-3.93-0.93","a7b10467-7644-40e0-ad88-bb64c46909b1","","3644","0","breath_counting","","","40,39","3644","added!",""
"3045","40","poldrack-single-stim","98","472676","0.0-3.94-0.94","a7b10467-7644-40e0-ad88-bb64c46909b1","","3045","0","breath_counting","","","40,39","3045","added!",""
"2805","40","poldrack-single-stim","99","475483","0.0-3.95-0.95","a7b10467-7644-40e0-ad88-bb64c46909b1","","2805","0","breath_counting","","","40,39","2805","added!",""
"3262","40","poldrack-single-stim","100","478749","0.0-3.96-0.96","a7b10467-7644-40e0-ad88-bb64c46909b1","","3262","0","breath_counting","","","40,39","3262","added!",""
"2971","39","poldrack-single-stim","101","481724","0.0-3.97-0.97","a7b10467-7644-40e0-ad88-bb64c46909b1","","2971","0","breath_counting","","","40,39","2971","added!",""
"4060","40","poldrack-single-stim","102","485787","0.0-3.98-0.98","a7b10467-7644-40e0-ad88-bb64c46909b1","","4060","0","breath_counting","","","40,39","4060","added!",""
"3687","40","poldrack-single-stim","103","489477","0.0-3.99-0.99","a7b10467-7644-40e0-ad88-bb64c46909b1","","3687","0","breath_counting","","","40,39","3687","added!",""
"3219","40","poldrack-single-stim","104","492700","0.0-3.100-0.100","a7b10467-7644-40e0-ad88-bb64c46909b1","","3219","0","breath_counting","","","40,39","3219","added!",""
"3148","40","poldrack-single-stim","105","495852","0.0-3.101-0.101","a7b10467-7644-40e0-ad88-bb64c46909b1","","3148","0","breath_counting","","","40,39","3148","added!",""
"3499","40","poldrack-single-stim","106","499356","0.0-3.102-0.102","a7b10467-7644-40e0-ad88-bb64c46909b1","","3499","0","breath_counting","","","40,39","3499","added!",""
"3621","40","poldrack-single-stim","107","502981","0.0-3.103-0.103","a7b10467-7644-40e0-ad88-bb64c46909b1","","3621","0","breath_counting","","","40,39","3621","added!",""
"3331","40","poldrack-single-stim","108","506316","0.0-3.104-0.104","a7b10467-7644-40e0-ad88-bb64c46909b1","","3331","0","breath_counting","","","40,39","3331","added!",""
"3195","40","poldrack-single-stim","109","509516","0.0-3.105-0.105","a7b10467-7644-40e0-ad88-bb64c46909b1","","3195","0","breath_counting","","","40,39","3195","added!",""
"3436","39","poldrack-single-stim","110","512956","0.0-3.106-0.106","a7b10467-7644-40e0-ad88-bb64c46909b1","","3436","0","breath_counting","","","40,39","3436","added!",""
"3685","40","poldrack-single-stim","111","516645","0.0-3.107-0.107","a7b10467-7644-40e0-ad88-bb64c46909b1","","3685","0","breath_counting","","","40,39","3685","added!",""
"3331","40","poldrack-single-stim","112","519980","0.0-3.108-0.108","a7b10467-7644-40e0-ad88-bb64c46909b1","","3331","0","breath_counting","","","40,39","3331","added!",""
"3357","40","poldrack-single-stim","113","523340","0.0-3.109-0.109","a7b10467-7644-40e0-ad88-bb64c46909b1","","3357","0","breath_counting","","","40,39","3357","added!",""
"3099","40","poldrack-single-stim","114","526444","0.0-3.110-0.110","a7b10467-7644-40e0-ad88-bb64c46909b1","","3099","0","breath_counting","","","40,39","3099","added!",""
"3981","40","poldrack-single-stim","115","530430","0.0-3.111-0.111","a7b10467-7644-40e0-ad88-bb64c46909b1","","3981","0","breath_counting","","","40,39","3981","added!",""
"3146","40","poldrack-single-stim","116","533580","0.0-3.112-0.112","a7b10467-7644-40e0-ad88-bb64c46909b1","","3146","0","breath_counting","","","40,39","3146","added!",""
"3124","40","poldrack-single-stim","117","536707","0.0-3.113-0.113","a7b10467-7644-40e0-ad88-bb64c46909b1","","3124","0","breath_counting","","","40,39","3124","added!",""
"3101","40","poldrack-single-stim","118","539812","0.0-3.114-0.114","a7b10467-7644-40e0-ad88-bb64c46909b1","","3101","0","breath_counting","","","40,39","3101","added!",""
"2624","39","poldrack-single-stim","119","542445","0.0-3.115-0.115","a7b10467-7644-40e0-ad88-bb64c46909b1","","2624","0","breath_counting","","","40,39","2624","added!",""
"3164","40","poldrack-single-stim","120","545612","0.0-3.116-0.116","a7b10467-7644-40e0-ad88-bb64c46909b1","","3164","0","breath_counting","","","40,39","3164","added!",""
"2987","40","poldrack-single-stim","121","548605","0.0-3.117-0.117","a7b10467-7644-40e0-ad88-bb64c46909b1","","2987","0","breath_counting","","","40,39","2987","added!",""
"4189","40","poldrack-single-stim","122","552798","0.0-3.118-0.118","a7b10467-7644-40e0-ad88-bb64c46909b1","","4189","0","breath_counting","","","40,39","4189","added!",""
"3042","40","poldrack-single-stim","123","555844","0.0-3.119-0.119","a7b10467-7644-40e0-ad88-bb64c46909b1","","3042","0","breath_counting","","","40,39","3042","added!",""
"3460","40","poldrack-single-stim","124","559308","0.0-3.120-0.120","a7b10467-7644-40e0-ad88-bb64c46909b1","","3460","0","breath_counting","","","40,39","3460","added!",""
"3110","40","poldrack-single-stim","125","562421","0.0-3.121-0.121","a7b10467-7644-40e0-ad88-bb64c46909b1","","3110","0","breath_counting","","","40,39","3110","added!",""
"3318","40","poldrack-single-stim","126","565742","0.0-3.122-0.122","a7b10467-7644-40e0-ad88-bb64c46909b1","","3318","0","breath_counting","","","40,39","3318","added!",""
"2075","40","poldrack-single-stim","127","567821","0.0-3.123-0.123","a7b10467-7644-40e0-ad88-bb64c46909b1","","2075","0","breath_counting","","","40,39","2075","added!",""
"3028","39","poldrack-single-stim","128","570853","0.0-3.124-0.124","a7b10467-7644-40e0-ad88-bb64c46909b1","","3028","0","breath_counting","","","40,39","3028","added!",""
"3380","40","poldrack-single-stim","129","574237","0.0-3.125-0.125","a7b10467-7644-40e0-ad88-bb64c46909b1","","3380","0","breath_counting","","","40,39","3380","added!",""
"2789","40","poldrack-single-stim","130","577030","0.0-3.126-0.126","a7b10467-7644-40e0-ad88-bb64c46909b1","","2789","0","breath_counting","","","40,39","2789","added!",""
"3012","40","poldrack-single-stim","131","580045","0.0-3.127-0.127","a7b10467-7644-40e0-ad88-bb64c46909b1","","3012","0","breath_counting","","","40,39","3012","added!",""
"2860","40","poldrack-single-stim","132","582909","0.0-3.128-0.128","a7b10467-7644-40e0-ad88-bb64c46909b1","","2860","0","breath_counting","","","40,39","2860","added!",""
"2884","40","poldrack-single-stim","133","585797","0.0-3.129-0.129","a7b10467-7644-40e0-ad88-bb64c46909b1","","2884","0","breath_counting","","","40,39","2884","added!",""
"2773","40","poldrack-single-stim","134","588574","0.0-3.130-0.130","a7b10467-7644-40e0-ad88-bb64c46909b1","","2773","0","breath_counting","","","40,39","2773","added!",""
"2752","40","poldrack-single-stim","135","591332","0.0-3.131-0.131","a7b10467-7644-40e0-ad88-bb64c46909b1","","2752","0","breath_counting","","","40,39","2752","added!",""
"2764","40","poldrack-single-stim","136","594100","0.0-3.132-0.132","a7b10467-7644-40e0-ad88-bb64c46909b1","","2764","0","breath_counting","","","40,39","2764","added!",""
"3013","39","poldrack-single-stim","137","597117","0.0-3.133-0.133","a7b10467-7644-40e0-ad88-bb64c46909b1","","3013","0","breath_counting","","","40,39","3013","added!",""
"2804","40","poldrack-single-stim","138","599926","0.0-3.134-0.134","a7b10467-7644-40e0-ad88-bb64c46909b1","","2804","0","breath_counting","","","40,39","2804","added!",""
"2934","40","poldrack-single-stim","139","602861","0.0-3.135-0.135","a7b10467-7644-40e0-ad88-bb64c46909b1","","2934","0","breath_counting","","","40,39","2934","added!",""
"2635","40","poldrack-single-stim","140","605501","0.0-3.136-0.136","a7b10467-7644-40e0-ad88-bb64c46909b1","","2635","0","breath_counting","","","40,39","2635","added!",""
"2650","40","poldrack-single-stim","141","608157","0.0-3.137-0.137","a7b10467-7644-40e0-ad88-bb64c46909b1","","2650","0","breath_counting","","","40,39","2650","added!",""
"2461","40","poldrack-single-stim","142","610621","0.0-3.138-0.138","a7b10467-7644-40e0-ad88-bb64c46909b1","","2461","0","breath_counting","","","40,39","2461","added!",""
"2628","40","poldrack-single-stim","143","613253","0.0-3.139-0.139","a7b10467-7644-40e0-ad88-bb64c46909b1","","2628","0","breath_counting","","","40,39","2628","added!",""
"2844","40","poldrack-single-stim","144","616101","0.0-3.140-0.140","a7b10467-7644-40e0-ad88-bb64c46909b1","","2844","0","breath_counting","","","40,39","2844","added!",""
"2972","40","poldrack-single-stim","145","619078","0.0-3.141-0.141","a7b10467-7644-40e0-ad88-bb64c46909b1","","2972","0","breath_counting","","","40,39","2972","added!",""
"2285","39","poldrack-single-stim","146","621367","0.0-3.142-0.142","a7b10467-7644-40e0-ad88-bb64c46909b1","","2285","0","breath_counting","","","40,39","2285","added!",""
"3289","40","poldrack-single-stim","147","624661","0.0-3.143-0.143","a7b10467-7644-40e0-ad88-bb64c46909b1","","3289","0","breath_counting","","","40,39","3289","added!",""
"2915","40","poldrack-single-stim","148","627581","0.0-3.144-0.144","a7b10467-7644-40e0-ad88-bb64c46909b1","","2915","0","breath_counting","","","40,39","2915","added!",""
"2501","40","poldrack-single-stim","149","630085","0.0-3.145-0.145","a7b10467-7644-40e0-ad88-bb64c46909b1","","2501","0","breath_counting","","","40,39","2501","added!",""
"2525","40","poldrack-single-stim","150","632614","0.0-3.146-0.146","a7b10467-7644-40e0-ad88-bb64c46909b1","","2525","0","breath_counting","","","40,39","2525","added!",""
"3364","40","poldrack-single-stim","151","635982","0.0-3.147-0.147","a7b10467-7644-40e0-ad88-bb64c46909b1","","3364","0","breath_counting","","","40,39","3364","added!",""
"3035","40","poldrack-single-stim","152","639022","0.0-3.148-0.148","a7b10467-7644-40e0-ad88-bb64c46909b1","","3035","0","breath_counting","","","40,39","3035","added!",""
"3099","40","poldrack-single-stim","153","642125","0.0-3.149-0.149","a7b10467-7644-40e0-ad88-bb64c46909b1","","3099","0","breath_counting","","","40,39","3099","added!",""
"2429","40","poldrack-single-stim","154","644559","0.0-3.150-0.150","a7b10467-7644-40e0-ad88-bb64c46909b1","","2429","0","breath_counting","","","40,39","2429","added!",""
"2106","39","poldrack-single-stim","155","646669","0.0-3.151-0.151","a7b10467-7644-40e0-ad88-bb64c46909b1","","2106","0","breath_counting","","","40,39","2106","added!",""
"2164","40","poldrack-single-stim","156","648837","0.0-3.152-0.152","a7b10467-7644-40e0-ad88-bb64c46909b1","","2164","0","breath_counting","","","40,39","2164","added!",""
"2650","40","poldrack-single-stim","157","651493","0.0-3.153-0.153","a7b10467-7644-40e0-ad88-bb64c46909b1","","2650","0","breath_counting","","","40,39","2650","added!",""
"2827","40","poldrack-single-stim","158","654324","0.0-3.154-0.154","a7b10467-7644-40e0-ad88-bb64c46909b1","","2827","0","breath_counting","","","40,39","2827","added!",""
"2543","40","poldrack-single-stim","159","656871","0.0-3.155-0.155","a7b10467-7644-40e0-ad88-bb64c46909b1","","2543","0","breath_counting","","","40,39","2543","added!",""
"2505","40","poldrack-single-stim","160","659380","0.0-3.156-0.156","a7b10467-7644-40e0-ad88-bb64c46909b1","","2505","0","breath_counting","","","40,39","2505","added!",""
"2589","40","poldrack-single-stim","161","661973","0.0-3.157-0.157","a7b10467-7644-40e0-ad88-bb64c46909b1","","2589","0","breath_counting","","","40,39","2589","added!",""
"2533","40","poldrack-single-stim","162","664510","0.0-3.158-0.158","a7b10467-7644-40e0-ad88-bb64c46909b1","","2533","0","breath_counting","","","40,39","2533","added!",""
"3293","40","poldrack-single-stim","163","667807","0.0-3.159-0.159","a7b10467-7644-40e0-ad88-bb64c46909b1","","3293","0","breath_counting","","","40,39","3293","added!",""
"2593","39","poldrack-single-stim","164","670406","0.0-3.160-0.160","a7b10467-7644-40e0-ad88-bb64c46909b1","","2593","0","breath_counting","","","40,39","2593","added!",""
"2971","40","poldrack-single-stim","165","673381","0.0-3.161-0.161","a7b10467-7644-40e0-ad88-bb64c46909b1","","2971","0","breath_counting","","","40,39","2971","added!",""
"3149","40","poldrack-single-stim","166","676534","0.0-3.162-0.162","a7b10467-7644-40e0-ad88-bb64c46909b1","","3149","0","breath_counting","","","40,39","3149","added!",""
"3188","40","poldrack-single-stim","167","679727","0.0-3.163-0.163","a7b10467-7644-40e0-ad88-bb64c46909b1","","3188","0","breath_counting","","","40,39","3188","added!",""
"3066","40","poldrack-single-stim","168","682797","0.0-3.164-0.164","a7b10467-7644-40e0-ad88-bb64c46909b1","","3066","0","breath_counting","","","40,39","3066","added!",""
"3389","40","poldrack-single-stim","169","686190","0.0-3.165-0.165","a7b10467-7644-40e0-ad88-bb64c46909b1","","3389","0","breath_counting","","","40,39","3389","added!",""
"2667","40","poldrack-single-stim","170","688862","0.0-3.166-0.166","a7b10467-7644-40e0-ad88-bb64c46909b1","","2667","0","breath_counting","","","40,39","2667","added!",""
"3005","40","poldrack-single-stim","171","691871","0.0-3.167-0.167","a7b10467-7644-40e0-ad88-bb64c46909b1","","3005","0","breath_counting","","","40,39","3005","added!",""
"3794","40","poldrack-single-stim","172","695670","0.0-3.168-0.168","a7b10467-7644-40e0-ad88-bb64c46909b1","","3794","0","breath_counting","","","40,39","3794","added!",""
"4754","39","poldrack-single-stim","173","700429","0.0-3.169-0.169","a7b10467-7644-40e0-ad88-bb64c46909b1","","4754","0","breath_counting","","","40,39","4754","added!",""
"2214","40","poldrack-single-stim","174","702647","0.0-3.170-0.170","a7b10467-7644-40e0-ad88-bb64c46909b1","","2214","0","breath_counting","","","40,39","2214","added!",""
"3185","40","poldrack-single-stim","175","705838","0.0-3.171-0.171","a7b10467-7644-40e0-ad88-bb64c46909b1","","3185","0","breath_counting","","","40,39","3185","added!",""
"3034","40","poldrack-single-stim","176","708878","0.0-3.172-0.172","a7b10467-7644-40e0-ad88-bb64c46909b1","","3034","0","breath_counting","","","40,39","3034","added!",""
"2971","40","poldrack-single-stim","177","711854","0.0-3.173-0.173","a7b10467-7644-40e0-ad88-bb64c46909b1","","2971","0","breath_counting","","","40,39","2971","added!",""
"2045","40","poldrack-single-stim","178","713904","0.0-3.174-0.174","a7b10467-7644-40e0-ad88-bb64c46909b1","","2045","0","breath_counting","","","40,39","2045","added!",""
"2809","40","poldrack-single-stim","179","716718","0.0-3.175-0.175","a7b10467-7644-40e0-ad88-bb64c46909b1","","2809","0","breath_counting","","","40,39","2809","added!",""
"2505","40","poldrack-single-stim","180","719230","0.0-3.176-0.176","a7b10467-7644-40e0-ad88-bb64c46909b1","","2505","0","breath_counting","","","40,39","2505","added!",""
"2443","40","poldrack-single-stim","181","721678","0.0-3.177-0.177","a7b10467-7644-40e0-ad88-bb64c46909b1","","2443","0","breath_counting","","","40,39","2443","added!",""
"2437","39","poldrack-single-stim","182","724120","0.0-3.178-0.178","a7b10467-7644-40e0-ad88-bb64c46909b1","","2437","0","breath_counting","","","40,39","2437","added!",""
"2714","40","poldrack-single-stim","183","726838","0.0-3.179-0.179","a7b10467-7644-40e0-ad88-bb64c46909b1","","2714","0","breath_counting","","","40,39","2714","added!",""
"2513","40","poldrack-single-stim","184","729356","0.0-3.180-0.180","a7b10467-7644-40e0-ad88-bb64c46909b1","","2513","0","breath_counting","","","40,39","2513","added!",""
"2409","40","poldrack-single-stim","185","731766","0.0-3.181-0.181","a7b10467-7644-40e0-ad88-bb64c46909b1","","2409","0","breath_counting","","","40,39","2409","added!",""
"3069","40","poldrack-single-stim","186","734840","0.0-3.182-0.182","a7b10467-7644-40e0-ad88-bb64c46909b1","","3069","0","breath_counting","","","40,39","3069","added!",""
"2642","40","poldrack-single-stim","187","737486","0.0-3.183-0.183","a7b10467-7644-40e0-ad88-bb64c46909b1","","2642","0","breath_counting","","","40,39","2642","added!",""
"2684","40","poldrack-single-stim","188","740174","0.0-3.184-0.184","a7b10467-7644-40e0-ad88-bb64c46909b1","","2684","0","breath_counting","","","40,39","2684","added!",""
"2587","40","poldrack-single-stim","189","742766","0.0-3.185-0.185","a7b10467-7644-40e0-ad88-bb64c46909b1","","2587","0","breath_counting","","","40,39","2587","added!",""
"2716","40","poldrack-single-stim","190","745488","0.0-3.186-0.186","a7b10467-7644-40e0-ad88-bb64c46909b1","","2716","0","breath_counting","","","40,39","2716","added!",""
"2953","39","poldrack-single-stim","191","748445","0.0-3.187-0.187","a7b10467-7644-40e0-ad88-bb64c46909b1","","2953","0","breath_counting","","","40,39","2953","added!",""
"2774","40","poldrack-single-stim","192","751222","0.0-3.188-0.188","a7b10467-7644-40e0-ad88-bb64c46909b1","","2774","0","breath_counting","","","40,39","2774","added!",""
"3114","40","poldrack-single-stim","193","754342","0.0-3.189-0.189","a7b10467-7644-40e0-ad88-bb64c46909b1","","3114","0","breath_counting","","","40,39","3114","added!",""
"2509","40","poldrack-single-stim","194","756856","0.0-3.190-0.190","a7b10467-7644-40e0-ad88-bb64c46909b1","","2509","0","breath_counting","","","40,39","2509","added!",""
"2225","40","poldrack-single-stim","195","759086","0.0-3.191-0.191","a7b10467-7644-40e0-ad88-bb64c46909b1","","2225","0","breath_counting","","","40,39","2225","added!",""
"3436","40","poldrack-single-stim","196","762527","0.0-3.192-0.192","a7b10467-7644-40e0-ad88-bb64c46909b1","","3436","0","breath_counting","","","40,39","3436","added!",""
"2475","40","poldrack-single-stim","197","765007","0.0-3.193-0.193","a7b10467-7644-40e0-ad88-bb64c46909b1","","2475","0","breath_counting","","","40,39","2475","added!",""
"3028","40","poldrack-single-stim","198","768040","0.0-3.194-0.194","a7b10467-7644-40e0-ad88-bb64c46909b1","","3028","0","breath_counting","","","40,39","3028","added!",""
"2682","40","poldrack-single-stim","199","770726","0.0-3.195-0.195","a7b10467-7644-40e0-ad88-bb64c46909b1","","2682","0","breath_counting","","","40,39","2682","added!",""
"2643","39","poldrack-single-stim","200","773374","0.0-3.196-0.196","a7b10467-7644-40e0-ad88-bb64c46909b1","","2643","0","breath_counting","","","40,39","2643","added!",""
"2811","40","poldrack-single-stim","201","776191","0.0-3.197-0.197","a7b10467-7644-40e0-ad88-bb64c46909b1","","2811","0","breath_counting","","","40,39","2811","added!",""
"2780","40","poldrack-single-stim","202","778975","0.0-3.198-0.198","a7b10467-7644-40e0-ad88-bb64c46909b1","","2780","0","breath_counting","","","40,39","2780","added!",""
"2363","40","poldrack-single-stim","203","781342","0.0-3.199-0.199","a7b10467-7644-40e0-ad88-bb64c46909b1","","2363","0","breath_counting","","","40,39","2363","added!",""
"3250","40","poldrack-single-stim","204","784598","0.0-3.200-0.200","a7b10467-7644-40e0-ad88-bb64c46909b1","","3250","0","breath_counting","","","40,39","3250","added!",""
"2091","40","poldrack-single-stim","205","786694","0.0-3.201-0.201","a7b10467-7644-40e0-ad88-bb64c46909b1","","2091","0","breath_counting","","","40,39","2091","added!",""
"2732","40","poldrack-single-stim","206","789431","0.0-3.202-0.202","a7b10467-7644-40e0-ad88-bb64c46909b1","","2732","0","breath_counting","","","40,39","2732","added!",""
"3298","40","poldrack-single-stim","207","792734","0.0-3.203-0.203","a7b10467-7644-40e0-ad88-bb64c46909b1","","3298","0","breath_counting","","","40,39","3298","added!",""
"2957","40","poldrack-single-stim","208","795695","0.0-3.204-0.204","a7b10467-7644-40e0-ad88-bb64c46909b1","","2957","0","breath_counting","","","40,39","2957","added!",""
"2518","39","poldrack-single-stim","209","798222","0.0-3.205-0.205","a7b10467-7644-40e0-ad88-bb64c46909b1","","2518","0","breath_counting","","","40,39","2518","added!",""
"2718","40","poldrack-single-stim","210","800944","0.0-3.206-0.206","a7b10467-7644-40e0-ad88-bb64c46909b1","","2718","0","breath_counting","","","40,39","2718","added!",""
"3114","40","poldrack-single-stim","211","804063","0.0-3.207-0.207","a7b10467-7644-40e0-ad88-bb64c46909b1","","3114","0","breath_counting","","","40,39","3114","added!",""
"2971","40","poldrack-single-stim","212","807039","0.0-3.208-0.208","a7b10467-7644-40e0-ad88-bb64c46909b1","","2971","0","breath_counting","","","40,39","2971","added!",""
"2440","40","poldrack-single-stim","213","809486","0.0-3.209-0.209","a7b10467-7644-40e0-ad88-bb64c46909b1","","2440","0","breath_counting","","","40,39","2440","added!",""
"3077","40","poldrack-single-stim","214","812568","0.0-3.210-0.210","a7b10467-7644-40e0-ad88-bb64c46909b1","","3077","0","breath_counting","","","40,39","3077","added!",""
"3050","40","poldrack-single-stim","215","815623","0.0-3.211-0.211","a7b10467-7644-40e0-ad88-bb64c46909b1","","3050","0","breath_counting","","","40,39","3050","added!",""
"4283","40","poldrack-single-stim","216","819911","0.0-3.212-0.212","a7b10467-7644-40e0-ad88-bb64c46909b1","","4283","0","breath_counting","","","40,39","4283","added!",""
"2337","40","poldrack-single-stim","217","822255","0.0-3.213-0.213","a7b10467-7644-40e0-ad88-bb64c46909b1","","2337","0","breath_counting","","","40,39","2337","added!",""
"1899","40","poldrack-single-stim","218","824160","0.0-3.214-0.214","a7b10467-7644-40e0-ad88-bb64c46909b1","","1899","0","breath_counting","","","40,39","1899","added!",""
"2177","39","poldrack-single-stim","219","826343","0.0-3.215-0.215","a7b10467-7644-40e0-ad88-bb64c46909b1","","2177","0","breath_counting","","","40,39","2177","added!",""
"2706","40","poldrack-single-stim","220","829054","0.0-3.216-0.216","a7b10467-7644-40e0-ad88-bb64c46909b1","","2706","0","breath_counting","","","40,39","2706","added!",""
"2363","40","poldrack-single-stim","221","831423","0.0-3.217-0.217","a7b10467-7644-40e0-ad88-bb64c46909b1","","2363","0","breath_counting","","","40,39","2363","added!",""
"2281","40","poldrack-single-stim","222","833711","0.0-3.218-0.218","a7b10467-7644-40e0-ad88-bb64c46909b1","","2281","0","breath_counting","","","40,39","2281","added!",""
"2628","40","poldrack-single-stim","223","836345","0.0-3.219-0.219","a7b10467-7644-40e0-ad88-bb64c46909b1","","2628","0","breath_counting","","","40,39","2628","added!",""
"2217","40","poldrack-single-stim","224","838567","0.0-3.220-0.220","a7b10467-7644-40e0-ad88-bb64c46909b1","","2217","0","breath_counting","","","40,39","2217","added!",""
"2330","40","poldrack-single-stim","225","840903","0.0-3.221-0.221","a7b10467-7644-40e0-ad88-bb64c46909b1","","2330","0","breath_counting","","","40,39","2330","added!",""
"2426","40","poldrack-single-stim","226","843335","0.0-3.222-0.222","a7b10467-7644-40e0-ad88-bb64c46909b1","","2426","0","breath_counting","","","40,39","2426","added!",""
"2226","40","poldrack-single-stim","227","845567","0.0-3.223-0.223","a7b10467-7644-40e0-ad88-bb64c46909b1","","2226","0","breath_counting","","","40,39","2226","added!",""
"2900","39","poldrack-single-stim","228","848471","0.0-3.224-0.224","a7b10467-7644-40e0-ad88-bb64c46909b1","","2900","0","breath_counting","","","40,39","2900","added!",""
"2939","40","poldrack-single-stim","229","851415","0.0-3.225-0.225","a7b10467-7644-40e0-ad88-bb64c46909b1","","2939","0","breath_counting","","","40,39","2939","added!",""
"2490","40","poldrack-single-stim","230","853911","0.0-3.226-0.226","a7b10467-7644-40e0-ad88-bb64c46909b1","","2490","0","breath_counting","","","40,39","2490","added!",""
"2827","40","poldrack-single-stim","231","856743","0.0-3.227-0.227","a7b10467-7644-40e0-ad88-bb64c46909b1","","2827","0","breath_counting","","","40,39","2827","added!",""
"2755","40","poldrack-single-stim","232","859503","0.0-3.228-0.228","a7b10467-7644-40e0-ad88-bb64c46909b1","","2755","0","breath_counting","","","40,39","2755","added!",""
"2481","40","poldrack-single-stim","233","861991","0.0-3.229-0.229","a7b10467-7644-40e0-ad88-bb64c46909b1","","2481","0","breath_counting","","","40,39","2481","added!",""
"3051","40","poldrack-single-stim","234","865048","0.0-3.230-0.230","a7b10467-7644-40e0-ad88-bb64c46909b1","","3051","0","breath_counting","","","40,39","3051","added!",""
"2783","40","poldrack-single-stim","235","867839","0.0-3.231-0.231","a7b10467-7644-40e0-ad88-bb64c46909b1","","2783","0","breath_counting","","","40,39","2783","added!",""
"2683","40","poldrack-single-stim","236","870528","0.0-3.232-0.232","a7b10467-7644-40e0-ad88-bb64c46909b1","","2683","0","breath_counting","","","40,39","2683","added!",""
"1737","39","poldrack-single-stim","237","872271","0.0-3.233-0.233","a7b10467-7644-40e0-ad88-bb64c46909b1","","1737","0","breath_counting","","","40,39","1737","added!",""
"2523","40","poldrack-single-stim","238","874799","0.0-3.234-0.234","a7b10467-7644-40e0-ad88-bb64c46909b1","","2523","0","breath_counting","","","40,39","2523","added!",""
"2698","40","poldrack-single-stim","239","877502","0.0-3.235-0.235","a7b10467-7644-40e0-ad88-bb64c46909b1","","2698","0","breath_counting","","","40,39","2698","added!",""
"2229","40","poldrack-single-stim","240","879735","0.0-3.236-0.236","a7b10467-7644-40e0-ad88-bb64c46909b1","","2229","0","breath_counting","","","40,39","2229","added!",""
"2506","40","poldrack-single-stim","241","882249","0.0-3.237-0.237","a7b10467-7644-40e0-ad88-bb64c46909b1","","2506","0","breath_counting","","","40,39","2506","added!",""
"2496","40","poldrack-single-stim","242","884751","0.0-3.238-0.238","a7b10467-7644-40e0-ad88-bb64c46909b1","","2496","0","breath_counting","","","40,39","2496","added!",""
"2698","40","poldrack-single-stim","243","887455","0.0-3.239-0.239","a7b10467-7644-40e0-ad88-bb64c46909b1","","2698","0","breath_counting","","","40,39","2698","added!",""
"2220","40","poldrack-single-stim","244","889679","0.0-3.240-0.240","a7b10467-7644-40e0-ad88-bb64c46909b1","","2220","0","breath_counting","","","40,39","2220","added!",""
"2201","40","poldrack-single-stim","245","891887","0.0-3.241-0.241","a7b10467-7644-40e0-ad88-bb64c46909b1","","2201","0","breath_counting","","","40,39","2201","added!",""
"2348","39","poldrack-single-stim","246","894241","0.0-3.242-0.242","a7b10467-7644-40e0-ad88-bb64c46909b1","","2348","0","breath_counting","","","40,39","2348","added!",""
"2818","40","poldrack-single-stim","247","897064","0.0-3.243-0.243","a7b10467-7644-40e0-ad88-bb64c46909b1","","2818","0","breath_counting","","","40,39","2818","added!",""
"2513","40","poldrack-single-stim","248","899583","0.0-3.244-0.244","a7b10467-7644-40e0-ad88-bb64c46909b1","","2513","0","breath_counting","","","40,39","2513","added!",""
"2604","40","poldrack-single-stim","249","902192","0.0-3.245-0.245","a7b10467-7644-40e0-ad88-bb64c46909b1","","2604","0","breath_counting","","","40,39","2604","added!",""
"2851","40","poldrack-single-stim","250","905049","0.0-3.246-0.246","a7b10467-7644-40e0-ad88-bb64c46909b1","","2851","0","breath_counting","","","40,39","2851","added!",""
"2898","40","poldrack-single-stim","251","907950","0.0-3.247-0.247","a7b10467-7644-40e0-ad88-bb64c46909b1","","2898","0","breath_counting","","","40,39","2898","added!",""
"2733","40","poldrack-single-stim","252","910688","0.0-3.248-0.248","a7b10467-7644-40e0-ad88-bb64c46909b1","","2733","0","breath_counting","","","40,39","2733","added!",""
"2659","40","poldrack-single-stim","253","913351","0.0-3.249-0.249","a7b10467-7644-40e0-ad88-bb64c46909b1","","2659","0","breath_counting","","","40,39","2659","added!",""
"3413","40","poldrack-single-stim","254","916769","0.0-3.250-0.250","a7b10467-7644-40e0-ad88-bb64c46909b1","","3413","0","breath_counting","","","40,39","3413","added!",""
"3080","39","poldrack-single-stim","255","919855","0.0-3.251-0.251","a7b10467-7644-40e0-ad88-bb64c46909b1","","3080","0","breath_counting","","","40,39","3080","added!",""
"2538","40","poldrack-single-stim","256","922400","0.0-3.252-0.252","a7b10467-7644-40e0-ad88-bb64c46909b1","","2538","0","breath_counting","","","40,39","2538","added!",""
"2521","40","poldrack-single-stim","257","924927","0.0-3.253-0.253","a7b10467-7644-40e0-ad88-bb64c46909b1","","2521","0","breath_counting","","","40,39","2521","added!",""
"2756","40","poldrack-single-stim","258","927689","0.0-3.254-0.254","a7b10467-7644-40e0-ad88-bb64c46909b1","","2756","0","breath_counting","","","40,39","2756","added!",""
"2615","40","poldrack-single-stim","259","930312","0.0-3.255-0.255","a7b10467-7644-40e0-ad88-bb64c46909b1","","2615","0","breath_counting","","","40,39","2615","added!",""
"2682","40","poldrack-single-stim","260","933000","0.0-3.256-0.256","a7b10467-7644-40e0-ad88-bb64c46909b1","","2682","0","breath_counting","","","40,39","2682","added!",""
"2598","40","poldrack-single-stim","261","935600","0.0-3.257-0.257","a7b10467-7644-40e0-ad88-bb64c46909b1","","2598","0","breath_counting","","","40,39","2598","added!",""
"3187","40","poldrack-single-stim","262","938793","0.0-3.258-0.258","a7b10467-7644-40e0-ad88-bb64c46909b1","","3187","0","breath_counting","","","40,39","3187","added!",""
"2038","40","poldrack-single-stim","263","940840","0.0-3.259-0.259","a7b10467-7644-40e0-ad88-bb64c46909b1","","2038","0","breath_counting","","","40,39","2038","added!",""
"3026","39","poldrack-single-stim","264","943872","0.0-3.260-0.260","a7b10467-7644-40e0-ad88-bb64c46909b1","","3026","0","breath_counting","","","40,39","3026","added!",""
"1905","40","poldrack-single-stim","265","945784","0.0-3.261-0.261","a7b10467-7644-40e0-ad88-bb64c46909b1","","1905","0","breath_counting","","","40,39","1905","added!",""
"3530","40","poldrack-single-stim","266","949322","0.0-3.262-0.262","a7b10467-7644-40e0-ad88-bb64c46909b1","","3530","0","breath_counting","","","40,39","3530","added!",""
"3584","40","poldrack-single-stim","267","952912","0.0-3.263-0.263","a7b10467-7644-40e0-ad88-bb64c46909b1","","3584","0","breath_counting","","","40,39","3584","added!",""
"2603","40","poldrack-single-stim","268","955520","0.0-3.264-0.264","a7b10467-7644-40e0-ad88-bb64c46909b1","","2603","0","breath_counting","","","40,39","2603","added!",""
"3088","40","poldrack-single-stim","269","958616","0.0-3.265-0.265","a7b10467-7644-40e0-ad88-bb64c46909b1","","3088","0","breath_counting","","","40,39","3088","added!",""
"3683","40","poldrack-single-stim","270","962304","0.0-3.266-0.266","a7b10467-7644-40e0-ad88-bb64c46909b1","","3683","0","breath_counting","","","40,39","3683","added!",""
"2578","40","poldrack-single-stim","271","964888","0.0-3.267-0.267","a7b10467-7644-40e0-ad88-bb64c46909b1","","2578","0","breath_counting","","","40,39","2578","added!",""
"2832","40","poldrack-single-stim","272","967727","0.0-3.268-0.268","a7b10467-7644-40e0-ad88-bb64c46909b1","","2832","0","breath_counting","","","40,39","2832","added!",""
"2531","39","poldrack-single-stim","273","970264","0.0-3.269-0.269","a7b10467-7644-40e0-ad88-bb64c46909b1","","2531","0","breath_counting","","","40,39","2531","added!",""
"2682","40","poldrack-single-stim","274","972953","0.0-3.270-0.270","a7b10467-7644-40e0-ad88-bb64c46909b1","","2682","0","breath_counting","","","40,39","2682","added!",""
"2730","40","poldrack-single-stim","275","975688","0.0-3.271-0.271","a7b10467-7644-40e0-ad88-bb64c46909b1","","2730","0","breath_counting","","","40,39","2730","added!",""
"2809","40","poldrack-single-stim","276","978504","0.0-3.272-0.272","a7b10467-7644-40e0-ad88-bb64c46909b1","","2809","0","breath_counting","","","40,39","2809","added!",""
"2843","40","poldrack-single-stim","277","981352","0.0-3.273-0.273","a7b10467-7644-40e0-ad88-bb64c46909b1","","2843","0","breath_counting","","","40,39","2843","added!",""
"2818","40","poldrack-single-stim","278","984176","0.0-3.274-0.274","a7b10467-7644-40e0-ad88-bb64c46909b1","","2818","0","breath_counting","","","40,39","2818","added!",""
"3028","40","poldrack-single-stim","279","987208","0.0-3.275-0.275","a7b10467-7644-40e0-ad88-bb64c46909b1","","3028","0","breath_counting","","","40,39","3028","added!",""
"2768","40","poldrack-single-stim","280","989984","0.0-3.276-0.276","a7b10467-7644-40e0-ad88-bb64c46909b1","","2768","0","breath_counting","","","40,39","2768","added!",""
"2035","40","poldrack-single-stim","281","992024","0.0-3.277-0.277","a7b10467-7644-40e0-ad88-bb64c46909b1","","2035","0","breath_counting","","","40,39","2035","added!",""
"3347","39","poldrack-single-stim","282","995378","0.0-3.278-0.278","a7b10467-7644-40e0-ad88-bb64c46909b1","","3347","0","breath_counting","","","40,39","3347","added!",""
"2511","40","poldrack-single-stim","283","997896","0.0-3.279-0.279","a7b10467-7644-40e0-ad88-bb64c46909b1","","2511","0","breath_counting","","","40,39","2511","added!",""
"2826","40","poldrack-single-stim","284","1000728","0.0-3.280-0.280","a7b10467-7644-40e0-ad88-bb64c46909b1","","2826","0","breath_counting","","","40,39","2826","added!",""
"2769","40","poldrack-single-stim","285","1003504","0.0-3.281-0.281","a7b10467-7644-40e0-ad88-bb64c46909b1","","2769","0","breath_counting","","","40,39","2769","added!",""
"2581","40","poldrack-single-stim","286","1006090","0.0-3.282-0.282","a7b10467-7644-40e0-ad88-bb64c46909b1","","2581","0","breath_counting","","","40,39","2581","added!",""
"3115","40","poldrack-single-stim","287","1009212","0.0-3.283-0.283","a7b10467-7644-40e0-ad88-bb64c46909b1","","3115","0","breath_counting","","","40,39","3115","added!",""
"3127","40","poldrack-single-stim","288","1012344","0.0-3.284-0.284","a7b10467-7644-40e0-ad88-bb64c46909b1","","3127","0","breath_counting","","","40,39","3127","added!",""
"3384","40","poldrack-single-stim","289","1015736","0.0-3.285-0.285","a7b10467-7644-40e0-ad88-bb64c46909b1","","3384","0","breath_counting","","","40,39","3384","added!",""
"3011","40","poldrack-single-stim","290","1018754","0.0-3.286-0.286","a7b10467-7644-40e0-ad88-bb64c46909b1","","3011","0","breath_counting","","","40,39","3011","added!",""
"2793","39","poldrack-single-stim","291","1021552","0.0-3.287-0.287","a7b10467-7644-40e0-ad88-bb64c46909b1","","2793","0","breath_counting","","","40,39","2793","added!",""
"3185","40","poldrack-single-stim","292","1024745","0.0-3.288-0.288","a7b10467-7644-40e0-ad88-bb64c46909b1","","3185","0","breath_counting","","","40,39","3185","added!",""
"4570","40","poldrack-single-stim","293","1029320","0.0-3.289-0.289","a7b10467-7644-40e0-ad88-bb64c46909b1","","4570","0","breath_counting","","","40,39","4570","added!",""
"3764","40","poldrack-single-stim","294","1033089","0.0-3.290-0.290","a7b10467-7644-40e0-ad88-bb64c46909b1","","3764","0","breath_counting","","","40,39","3764","added!",""
"2715","40","poldrack-single-stim","295","1035808","0.0-3.291-0.291","a7b10467-7644-40e0-ad88-bb64c46909b1","","2715","0","breath_counting","","","40,39","2715","added!",""
"3730","40","poldrack-single-stim","296","1039546","0.0-3.292-0.292","a7b10467-7644-40e0-ad88-bb64c46909b1","","3730","0","breath_counting","","","40,39","3730","added!",""
"2816","40","poldrack-single-stim","297","1042368","0.0-3.293-0.293","a7b10467-7644-40e0-ad88-bb64c46909b1","","2816","0","breath_counting","","","40,39","2816","added!",""
"2657","40","poldrack-single-stim","298","1045033","0.0-3.294-0.294","a7b10467-7644-40e0-ad88-bb64c46909b1","","2657","0","breath_counting","","","40,39","2657","added!",""
"2859","40","poldrack-single-stim","299","1047897","0.0-3.295-0.295","a7b10467-7644-40e0-ad88-bb64c46909b1","","2859","0","breath_counting","","","40,39","2859","added!",""
"2340","39","poldrack-single-stim","300","1050243","0.0-3.296-0.296","a7b10467-7644-40e0-ad88-bb64c46909b1","","2340","0","breath_counting","","","40,39","2340","added!",""
"2582","40","poldrack-single-stim","301","1052833","0.0-3.297-0.297","a7b10467-7644-40e0-ad88-bb64c46909b1","","2582","0","breath_counting","","","40,39","2582","added!",""
"2129","40","poldrack-single-stim","302","1054968","0.0-3.298-0.298","a7b10467-7644-40e0-ad88-bb64c46909b1","","2129","0","breath_counting","","","40,39","2129","added!",""
"3498","40","poldrack-single-stim","303","1058473","0.0-3.299-0.299","a7b10467-7644-40e0-ad88-bb64c46909b1","","3498","0","breath_counting","","","40,39","3498","added!",""
"3826","40","poldrack-single-stim","304","1062306","0.0-3.300-0.300","a7b10467-7644-40e0-ad88-bb64c46909b1","","3826","0","breath_counting","","","40,39","3826","added!",""
"3048","40","poldrack-single-stim","305","1065361","0.0-3.301-0.301","a7b10467-7644-40e0-ad88-bb64c46909b1","","3048","0","breath_counting","","","40,39","3048","added!",""
"2497","40","poldrack-single-stim","306","1067864","0.0-3.302-0.302","a7b10467-7644-40e0-ad88-bb64c46909b1","","2497","0","breath_counting","","","40,39","2497","added!",""
"3363","40","poldrack-single-stim","307","1071233","0.0-3.303-0.303","a7b10467-7644-40e0-ad88-bb64c46909b1","","3363","0","breath_counting","","","40,39","3363","added!",""
"2301","40","poldrack-single-stim","308","1073538","0.0-3.304-0.304","a7b10467-7644-40e0-ad88-bb64c46909b1","","2301","0","breath_counting","","","40,39","2301","added!",""
"2184","39","poldrack-single-stim","309","1075729","0.0-3.305-0.305","a7b10467-7644-40e0-ad88-bb64c46909b1","","2184","0","breath_counting","","","40,39","2184","added!",""
"","","call-function","310","1075750","0.0-4.0","a7b10467-7644-40e0-ad88-bb64c46909b1","","","","","","","","","",""
"7219","13","poldrack-text","311","1082970","0.0-5.0","a7b10467-7644-40e0-ad88-bb64c46909b1","<div class = centerbox><p class = center-block-text>Great job and thank you! You are now finished with this part of the study.</p><p class = center-block-text>Press <strong>enter</strong> to continue.</p></div>","7219","0","end","","","","","","breath_counting_task"
"608","13","text","312","1083579","0.0-6.0","a7b10467-7644-40e0-ad88-bb64c46909b1","","","","","","","","","",""
